Time (s),Acceleration x (m/s^2),Acceleration y (m/s^2),Acceleration z (m/s^2)
2.4520384517435616,-0.23929971431325858,-0.030214381074719004,9.714551900850271
-0.6282434995838485,-0.21264287261110798,-0.05376237257972623,9.700432384393885
0.4161305687877305,-0.18271776700344067,-0.03025745186641383,9.677080968997744
-0.19294605715520916,-0.224357901209915,-0.01848459453864126,9.717164194446704
0.2578214213031779,-0.22042341337784127,-0.027449703784622494,9.745032122613326
-0.07394169746553088,-0.23152728656451144,-0.042033153157269264,9.722911506568712
0.21469533206185054,-0.24535348539481003,-0.020711165268390855,9.665298343857858
-0.01034930051938796,-0.24070308026974713,-0.022469310163345576,9.718604813166579
0.20260650402584643,-0.23040345405023996,-0.03533453614346949,9.761625599010252
0.034076644725892814,-0.23590029998391482,-0.029701991864428547,9.699869564444324
0.2032075373723249,-0.25554070852871646,-0.004693049382467825,9.698177709281996
0.06966721252419687,-0.23436082695169555,-0.039416587986579966,9.739591369497484
0.21021157233358306,-0.2126819260490252,-0.037214890321460796,9.71221630968346
0.10046697577385066,-0.22715908746423102,-0.021410876092365572,9.692085910979626
0.22089011575996456,-0.24547424536786291,-0.011621383657807566,9.72281972258888
0.12838200157678964,-0.20880702445043364,-0.013831458050636392,9.757989888661278
0.23387514916348762,-0.21933859642859566,-0.023494788509097905,9.67124708419146
0.15442662492315437,-0.24423320172366259,-0.00670090031351922,9.678944580200984
0.24839996171125006,-0.2561105210761235,-0.02893677028349651,9.751224223158655
0.17918892801877734,-0.23584677009849678,-0.027371489034882297,9.740375977365446
0.2640029073446919,-0.22412129346833584,-0.025697239071248754,9.66690720795753
0.20303346044711937,-0.23754498519666103,-0.025816623008722176,9.696111978541914
0.28038835464254525,-0.19796765990436996,-0.03699399991400525,9.747310913697284
0.22619767818674125,-0.20184811802111918,-0.024278572578993678,9.725954130671077
0.2973631666718442,-0.22087178874851154,-0.0031362351591471753,9.702305456787084
0.24884743959864883,-0.2349417136774235,-0.017983387019619615,9.744853632239286
0.3147959992869668,-0.20388568037485186,-0.03741326315348395,9.75591129954534
0.2711019044022889,-0.1969030525390914,-0.022436941818145924,9.702257585583672
0.3325859267766518,-0.1931779404422042,-0.019072416197252747,9.712957237439756
0.2930351744781876,-0.19873189005895583,-0.04751260697225743,9.739922387098895
0.35066252576426193,-0.21532640646301393,-0.03978227567188545,9.702893504894245
0.3147160443475754,-0.24222889452298557,-0.03677218591262559,9.675401314538968
0.36897425087718444,-0.21808033211881964,-0.02048989096547744,9.748047001694705
0.33618737230259893,-0.18985453921314066,-0.03475494773034288,9.75669607997355
0.3874743513658809,-0.20703957819084653,-0.03433907417499871,9.706522269019509
0.35748267788334365,-0.22257478467710398,-0.005833625919783212,9.703385533424617
0.4061352113002087,-0.23771713966903885,-0.042042308247988526,9.754625473205099
0.378631202893912,-0.24435037633244913,-0.01879146887541749,9.743723579586819
0.4249282786927261,-0.2121915830486336,-0.015849706699591126,9.694008168928965
0.39966189462087637,-0.21221872950234638,-0.02999531887510536,9.755062445052541
0.44384373592481674,-0.19592897720894129,-0.03668231830421373,9.74216188019696
0.4205878447537139,-0.20706663737036166,-0.025950436644905598,9.675418730233561
0.46285307636021195,-0.2099913005639183,-0.030718610425754155,9.696828373875809
0.44141901509122455,-0.18286193510885007,-0.03665717336443329,9.728842871632844
0.48194190839885603,-0.21140469238631404,-0.04848497380570822,9.725065881520388
0.46216864218853776,-0.23173999411708432,-0.033100441802933374,9.656449948336567
0.5011049975585942,-0.22008564307616366,-0.023798163746679417,9.726287711930066
0.48285061883182234,-0.24670314465675705,-0.038498669411142106,9.769360689780227
0.520331267550577,-0.23735150721726936,-0.02745075156234117,9.713047698321622
0.5034730844291175,-0.23488734811741369,-0.031722756533884816,9.710214347439196
0.5396159811325911,-0.22506053738615675,-0.04127493926614101,9.744537999668626
0.5240430560639067,-0.21099541886844647,-0.020895514041747616,9.724379447837796
0.5589490915151062,-0.2278282974811005,-0.03190120275456788,9.688925618338686
0.5445611860505963,-0.1955708471568128,-0.014460373241439709,9.742430512310754
0.5783247437869408,-0.20061833578659044,-0.04090167761129492,9.749206830467589
0.5650402673498289,-0.22522063835035178,-0.04932853702301695,9.697275548193199
0.597743199254635,-0.23056580305109411,-0.01881359171688908,9.702274822744998
0.585484525191131,-0.23119313113378884,-0.0061131089250222774,9.736887314018269
0.6171990623403618,-0.22162621631324744,-0.04164045867594817,9.736207211078968
0.6058940998322992,-0.19720250590577768,-0.03830678723953476,9.662504630619466
0.6366831989955077,-0.22461250528265334,-0.049702959837370414,9.69897457174512
0.6262691979510304,-0.20793211296499434,-0.06199830568745539,9.789996961096397
0.6561958712167536,-0.2044256745028708,-0.058833868986342554,9.743382608487435
0.6466191242085272,-0.19323134464504066,-0.009898456886195844,9.700670624645785
0.6757355465225577,-0.20562382351705794,0.005294292704207079,9.755083377184441
0.6669439335865727,-0.23695914680732882,-0.021262894393926823,9.741014632978237
0.6953017482588889,-0.2096219207117641,-0.022336832311873174,9.68721812549806
0.6872505776536763,-0.23977640136923908,-0.006183734522796838,9.69411122773368
0.7148915732400684,-0.2212522274556916,-0.038513474724855744,9.733659761675241
0.7075348405715632,-0.19999575189833732,-0.04904774139716052,9.69301741828415
0.7344995956766703,-0.20608392506608256,-0.003527906783122172,9.659370452999491
0.7277989894267513,-0.2282446528977444,-0.01706163452253428,9.748486338850144
0.7541233229153383,-0.20621569557199906,-0.05109827322899608,9.768064571062174
0.7480450399151963,-0.22701574742464314,-0.025225850826629637,9.703995817826202
0.7737660489388091,-0.25032071719758925,0.0008677168203072843,9.675545203537988
0.7682761521024941,-0.25213803857359224,-0.01329650401020977,9.768129122611404
0.793425262076513,-0.20657793467724767,-0.03164519006588637,9.762412702897214
0.7884948568669278,-0.22859220759072135,-0.015222824365120803,9.719278787051156
0.8130998508026775,-0.22185041718093415,-0.009927533182173254,9.72460496599261
0.8086995890839436,-0.22428106891668467,-0.011131455904514465,9.729643988075509
0.8327832172958006,-0.2505505451290674,-0.02723754616230371,9.690621910972832
0.8288857446847784,-0.24341243024468004,-0.031910101280004946,9.695433726448881
0.852480121819569,-0.246852096823344,-0.029448308929178987,9.751785304107528
0.8490629946116321,-0.21092778513509008,-0.02425394954765613,9.722786784885885
0.8721902617423862,-0.23188255344773942,-0.019753951326270804,9.641518786073313
0.8692351432830703,-0.20750332396425525,-0.02103534793524555,9.724711672868866
0.8919139983669605,-0.2172921911128353,-0.02583964459225371,9.748128319945113
0.8893952147150589,-0.22371991736819835,-0.0010910307439826275,9.693275400285597
0.9116456930008561,-0.24322909799732234,-0.0018520417306315652,9.708829688168182
0.9095461722053259,-0.21770997295631891,-0.03627077451783713,9.741026517680645
0.9313894652789024,-0.20572251721231022,-0.04397647245879578,9.736371679494725
0.9296916237041355,-0.22279158867109397,-0.011328921345589379,9.7003224470868
0.9511422465220631,-0.24239237899038305,-0.0027303988881913948,9.74336157410844
0.9498232087785706,-0.23063387290200804,-0.023834055892665133,9.747658930840677
0.9708955578332693,-0.21425928333230304,-0.011905324400484437,9.646608581754505
0.9699449184989923,-0.2193639671280708,-0.013432627411596398,9.683977894871928
0.9906581189464183,-0.2041848141645293,-0.02315601590118741,9.726484509149362
0.9900593577663722,-0.20862577169904567,-0.05441686891661397,9.738588811972832
1.0104277345440897,-0.20353292877629633,-0.03659620101040307,9.6796084548617
1.010170183532917,-0.22207762954504948,-0.010880718027033909,9.69869905972918
1.0302057788548222,-0.21960698799279765,-0.042808137388065846,9.756154897384793
1.0302740166067896,-0.2115272072746785,-0.055485225089319815,9.729312622507651
1.0499904280898102,-0.25622780709872783,-0.02129569647036013,9.712149522521873
1.0503705870153743,-0.2450429388308582,-0.012946198784997838,9.738559538477858
1.069777042285846,-0.1910348680665949,-0.031893533612705006,9.72352837593492
1.0704606634253055,-0.22233183090862027,-0.01793690293759892,9.659373362995291
1.089573394292952,-0.23050607584568028,-0.019216056169936137,9.688607956956185
1.0905465075900052,-0.2320558769185233,-0.02633349423798324,9.754171713637236
1.109372718300834,-0.20808571086396244,-0.03580304278557515,9.666993296496333
1.110627746701465,-0.24528943985924476,-0.0037687289633289607,9.646035548397299
1.1291779352160747,-0.24173907339343714,-0.008930518101752955,9.754421747436753
1.1307043393000602,-0.21162128824459242,-0.02068546876804781,9.766060818578532
1.1489864395951799,-0.23698894217625718,-0.020135767428488018,9.71399792581713
1.150775705175646,-0.23110898812795108,-0.024421230053268718,9.702398708228696
1.168804564310198,-0.21222926563017144,-0.014451209009132496,9.749614701884532
1.1708460226095236,-0.22031308397603655,-0.034519084658972056,9.721778756395034
1.1886246118048336,-0.2397531805560031,-0.009071517228145691,9.69698735115717
1.1909128372618447,-0.2300787616429872,-0.019604173954992726,9.73237928896746
1.208452440101044,-0.2066370765493857,-0.01768743811578688,9.759654443580411
1.210975938049349,-0.2232975956038202,-0.023384307486585265,9.702076321646148
1.2282784776137017,-0.23372245999414462,0.010252501534126091,9.691889737816144
1.2310289219379857,-0.22841222842476744,-0.006573151338748676,9.75367616868745
1.2481077460879202,-0.2182146238253108,-0.038357193979389984,9.713630659624108
1.2510812888809237,-0.21492700991068686,-0.021730365973485707,9.663517939303702
1.2679399123954291,-0.2228575910652173,-0.0251156672535735,9.73426195501688
1.271126228189439,-0.2124490975957317,-0.04347572655038965,9.780154760243468
1.2877723719544627,-0.20762316561520144,-0.04372695536794119,9.710420117085738
1.2911707425998113,-0.2224250079839592,-0.03584987543943179,9.693910051105057
1.3076123102158284,-0.2158911518369467,-0.0174896329116067,9.754903827619978
1.3112137384468807,-0.2159860718725348,-0.04039526504553741,9.748018954299392
1.327453824279568,-0.23877830245563278,-0.017661698940703813,9.694576740197917
1.331250081595465,-0.23277155859777435,-0.011069905721143814,9.72424533071811
1.3472987535210814,-0.21003834499515892,-0.03633875733249527,9.738642524311519
1.35128793381277,-0.22800789850479344,-0.018955716620960926,9.687703440555001
1.367149329492212,-0.213502698910534,-0.0065074449076180365,9.694905857211007
1.3713243944978393,-0.19084785162158893,-0.011316468383520534,9.735652400064422
1.3870006336988236,-0.21000172801707306,-0.02432702055577456,9.73636201759683
1.39135788664791,-0.21271699841360772,-0.027618245790593816,9.660472249003735
1.4068560278234936,-0.22865457042694495,-0.010230388350688444,9.714447566093133
1.4113878382581895,-0.20159896320480356,-0.030906529947148972,9.787263503466752
1.426712502033348,-0.21657321296961926,-0.041145145545732495,9.72344295801287
1.4314149075260842,-0.24371553693683853,-0.024970553082861044,9.705963175050462
1.446571615030065,-0.23404762364371903,-0.015549667466858954,9.734828542384307
1.4514416849378855,-0.19231016149890176,-0.026743574669456538,9.740067593193709
1.466432655806043,-0.19972399597566656,-0.029906260255140496,9.707195236850097
1.471463588759128,-0.20999203070750444,0.0048570600110715975,9.710900241412517
1.4862963246260343,-0.23783188617978748,-0.03019217110091308,9.729597816593527
1.4914854216613915,-0.21641413821336594,-0.029625677076662298,9.705588548143352
1.5061597537923226,-0.22198772726770372,0.0067423947048093034,9.685344457872878
1.5115039160812953,-0.24398477495700235,-0.0019749723402935297,9.746347388726559
1.526024836028803,-0.21981177854197712,-0.04137741389492971,9.740716818188742
1.531518653465181,-0.2222769300166847,-0.010580571233820984,9.71847483433352
1.5458944752022035,-0.23799136588121397,0.0009523931635752258,9.710234486951038
1.551537204141764,-0.2231861213545453,-0.02733793402154169,9.762508835126322
1.5657662286515326,-0.21071342238170246,-0.025947808021796123,9.729683066800227
1.5715515786393979,-0.22392518064693567,-0.03471500506647039,9.721112753886956
1.5856413121613533,-0.23870406652286946,-0.030450119100189993,9.748426668416851
1.5915677478016237,-0.20671650252602325,-0.03832278440429252,9.706780912075311
1.6055186355938942,-0.20227914549872936,-0.03200840877150236,9.695727436874366
1.6115818191118307,-0.2174734741597336,-0.021539990990156258,9.699121108803727
1.625396195802461,-0.19893056226722497,-0.03929550976480438,9.729447147609179
1.631593059366495,-0.20658049262514294,-0.045938064310651915,9.731826728949464
1.6452750497328934,-0.19772990976297458,-0.04081485248284512,9.686420799808994
1.6516002873542062,-0.21522178974965436,-0.021451340499981403,9.743407858483103
1.6651527357331033,-0.20046079281158244,-0.026703503785930345,9.766839863820008
1.6716065530559292,-0.22860565229314983,-0.03645835748463836,9.701147186670024
1.6850332474473542,-0.24539194582888094,-0.01025283151304545,9.6940441592787
1.6916118275992647,-0.23231833789940326,-0.03348298987107536,9.744903632281199
1.7049143091967391,-0.23402306055727876,-0.03689326161783729,9.76026416518986
1.7116150237453283,-0.22599537162154595,-0.018524067352147032,9.69970134297646
1.7247958706988475,-0.22682175259991508,-0.01511006793263286,9.718927659438766
1.7316115378818866,-0.2109434102962353,-0.02149721198928235,9.72268821432799
1.7446748641990721,-0.2307785928063348,-0.023471516314252403,9.677258893308306
1.751613147653381,-0.2165982289011343,-0.013158499774152862,9.679671827158773
1.7645611094281182,-0.21948404732715912,-0.01587272980659302,9.735922271044881
1.771614788075513,-0.21979605379417771,-0.023643419987125505,9.726855346374792
1.7844505514305382,-0.221215183063933,-0.02151856657502976,9.672711983004366
1.7916161762589604,-0.24078855350890407,-0.005708723626116068,9.70866861472911
1.8043380816592687,-0.22223621860890727,-0.04049287584542726,9.76261755074431
1.811613249988262,-0.1981817367168533,-0.049933504357192564,9.719084415458926
1.8242299406393008,-0.24684023577681496,-0.01632259623403493,9.70715113954909
1.8316138728900433,-0.25255088972144035,-0.04170279239771441,9.737117605399122
1.844121823356886,-0.22616469560349742,-0.037256281197233225,9.777312014884227
1.8516102185964542,-0.21966447396139976,-0.01937137981381335,9.715446743321335
1.8640127963031397,-0.23580227566172565,-0.015083802690896887,9.72554923427537
1.8716050259389532,-0.2178205163526668,-0.014164943202441202,9.742146048515552
1.8839036855122082,-0.19348703262813438,-0.018426444467557642,9.70384499843786
1.8915960191063552,-0.21982851382388355,0.0005192814318921827,9.686777650889505
1.9037965175577776,-0.23142265649178478,-0.009343499521987587,9.740640835779152
1.911590802649879,-0.22558070165143757,-0.034695728629265225,9.732110074764087
1.9236915523674238,-0.23415787388850065,-0.028227467727185263,9.677964282786538
1.9315830392264484,-0.24349556989517726,-0.005359111242629827,9.681855894836094
1.9435879878445517,-0.22084007165229572,-0.00892530453658987,9.786848624913171
1.9515785126784944,-0.19455839853867393,-0.026360503840606467,9.718154595944227
1.9634887345468635,-0.23581667004142165,-0.012748038968079984,9.718477011823541
1.9715747357085134,-0.25215435594543034,-0.014086094814927742,9.780643377529948
1.9833913301363941,-0.2312026486733244,-0.03128341637396614,9.726601921238979
1.991568908116981,-0.21873118252607718,-0.02597805298299985,9.679983817144842
2.0032939705156236,-0.21043392899754773,-0.032904769068067184,9.698733944170861
2.0115613958580187,-0.19339176492601284,-0.025440521976196288,9.738472203534862
2.023192653923764,-0.19778111281819197,-0.02812920852297542,9.715467062935739
2.031551025043844,-0.20092850690997352,-0.020021602283637144,9.678381788270036
2.0430969571197903,-0.22942423642323173,-0.009850626425795107,9.73659939820517
2.0515415262508045,-0.22762417033553944,-0.029550046769252016,9.760460278964203
2.06299623801983,-0.22253552561448006,-0.03270997173672911,9.712443521620106
2.071527641974666,-0.24829269227227957,-0.028866051142861095,9.692196531602281
2.0828987947672597,-0.23104761983185057,-0.04358593300473005,9.745449456490732
2.0915170333379023,-0.2195703842153771,-0.03906950331358243,9.761105022258594
2.1028041874816212,-0.2238229210522955,-0.005275156048352093,9.705078817761832
2.111508434903419,-0.2641323799206022,-0.018745959187418927,9.747728411417699
2.122712768145991,-0.2138989650584184,-0.03218979971826923,9.729515732847528
2.131496650717714,-0.21047696222532467,-0.04435890562644352,9.68559308545453
2.1426181591511835,-0.21854298728181765,-0.020121894313083002,9.684669126214786
2.15148274346746,-0.21553880988351076,-0.011117400811949138,9.764189822638524
2.162522943751738,-0.2026608561733828,-0.02889663116897287,9.73231914090732
2.171465254619093,-0.2187379079473094,-0.023074020729075835,9.66702145707075
2.1824241905782675,-0.2174644202388082,-0.026457659536579654,9.714684687881066
2.191444529679899,-0.2256872750200015,-0.017074978710614096,9.766335350090559
2.202326079353524,-0.22059199185050962,-0.020830210936696528,9.709948951898685
2.2114265418008108,-0.2362087777287193,-0.001518477297488515,9.723017177197312
2.222235300519834,-0.2282796186808204,-0.023379331950617265,9.76117007746968
2.2314120235263,-0.20145708083793787,-0.03605462154953754,9.744960992875692
2.2421431765201367,-0.22212245674696574,-0.016124344164330857,9.6906045749106
2.251392189482725,-0.21988274713585415,-0.01884915018797008,9.710379489398909
2.2620444688774617,-0.20293928781196025,-0.030191102667001233,9.730809145502159
2.2713655439157314,-0.22305329825010833,-0.025066906611804496,9.68518832209848
2.281945190529523,-0.24047379698834773,-0.00651597992568893,9.709442151145279
2.29134011729964,-0.2189226931880139,-0.018938877298692237,9.739069892329061
2.301848789519599,-0.20707154307555153,-0.037626510191047284,9.744325729044713
2.31131743432601,-0.24109129951219085,-0.02535466065730182,9.697679571531525
2.3217566747647775,-0.23530745482361498,0.0005965175431113854,9.707485746553383
2.3312955572105305,-0.2179571377454596,-0.003913071290087151,9.766721843195974
2.341664869271235,-0.2091802260495522,-0.03690555699188249,9.730974834195125
2.3512748444611082,-0.23415608029188686,-0.009849022562772265,9.691753893799145
2.3615736620026273,-0.22291315602336922,-0.02520092086409084,9.736978260419935
2.3712492600774366,-0.21485315310432104,-0.05278430398322307,9.708775708670311
2.3814771152821996,-0.21051190340131573,-0.041073864831117475,9.679200613035647
2.391221187858035,-0.23157704976737545,-0.01680955449370862,9.68871000617097
2.4013837936792015,-0.22241280064944696,-0.02523572980702188,9.766119255944375
2.4111958253308687,-0.21775209951408986,-0.04297904586021272,9.699947367644912
2.42129167353692,-0.21517463512928145,-0.025123631716656374,9.668625389484246
2.4311701463886015,-0.21151154946450462,-0.018455776121629693,9.739095385315533
2.441200672117619,-0.22347734937439237,-0.005487565212369188,9.731482092076963
2.4511440255049473,-0.22011472775756735,-0.0008206326203840482,9.705604588909772
2.4611094496004373,-0.21557198530047042,-0.01120590014402013,9.695473990509475
2.4711191655848292,-0.2161150347344201,-0.017843703482650883,9.770041816853192
2.4810257256516772,-0.21071593927783513,-0.03511729297263596,9.755962172068612
2.4910982234715915,-0.22112008213409523,-0.015591585344596322,9.687290047349784
2.5009372578535163,-0.24441778791872956,-0.01707497551803508,9.72068380792198
2.511070571191651,-0.21769773161352277,-0.0315041570701905,9.73769919681228
2.5208487814396685,-0.20162127741226601,-0.014199398988533016,9.671307413272942
2.5310467573431423,-0.21480202300384926,-0.024547381369459245,9.682845283631147
2.540764586464527,-0.2342698393892223,-0.01659595124238162,9.757463113937614
2.5510218591839107,-0.21561967995071546,-0.030262267399996316,9.734666409954134
2.5606758260866584,-0.25608677669234503,-0.006623086879566942,9.62731617380031
2.5709914240129357,-0.2556109091211665,0.004154231992425619,9.7148184380933
2.5805853371010166,-0.2246364470804733,-0.020532305848417472,9.787545744172842
2.590962292179591,-0.21171937182560943,-0.009747868028833592,9.725223277795536
2.6004967909283168,-0.26798778839090365,-0.012680959911828544,9.725935516272763
2.6109349745955406,-0.2290756362110285,-0.045634965512023985,9.731785702316028
2.620413508394657,-0.19536883413977585,-0.03513409508824646,9.737900682959218
2.630908857118506,-0.23328775282627096,-0.02740581812904015,9.706996723642517
2.6403286463463265,-0.22282809763605915,-0.028007114852002423,9.726849144666785
2.6508799217804673,-0.21376846248277565,-0.03499006944647164,9.749312287993776
2.660243260079629,-0.2061025063451652,-0.015777765892368414,9.657445473444074
2.670852404230304,-0.21931282388413997,-0.013558235807989554,9.668501314778695
2.680157205996894,-0.21378809260599127,-0.026141458482815766,9.734759901282374
2.6908233032865345,-0.20052060455853046,-0.041934142395575746,9.735865043150836
2.700073939921547,-0.1895315998478856,-0.024326469452210828,9.673980109962523
2.7107969266646568,-0.21466499380426074,-0.042105903065018005,9.698411898511488
2.719992156133126,-0.2231031718305851,-0.037538027256143795,9.769061448735725
2.730764540975385,-0.22709775712876681,-0.03708708642999075,9.720797155166988
2.7399028200059616,-0.254809069857497,-0.01882305693569599,9.681201653538547
2.750731688065981,-0.23634174789820847,-0.025352226523449883,9.736816912973861
2.7598169248242472,-0.21133927092227806,-0.029851976994430422,9.718851019502313
2.7707019488267295,-0.22679596137300523,-0.021898141189760856,9.695659895846857
2.779734691470041,-0.24540643474507376,-0.01225640804511043,9.706183846191148
2.7906727549017907,-0.22336109600609513,-0.03681477527775712,9.729614565471685
2.7996543074707416,-0.21394985556702345,-0.03470133041669259,9.694296337597335
2.810645233917462,-0.2126039688964635,-0.022546477199648397,9.659150991145564
2.8195743561837308,-0.2309794317598517,-0.013867828377000993,9.74254342695819
2.8306165078780268,-0.23340948272126175,-0.03049621284455734,9.744320562836819
2.8394910542445158,-0.22330244685724532,-0.008505333876085321,9.712743378811451
2.8505841741800717,-0.24370182821989972,0.0007271926711293752,9.707264710000333
2.8594069623474327,-0.22423009928847287,-0.028910027803532266,9.757306403539081
2.8705485972994147,-0.20171441153028674,-0.016440668827563194,9.756133669023605
2.879321027650878,-0.24664369598571578,-0.02515262883112123,9.702543291927503
2.89051641983621,-0.25905016207186404,-0.040443576970553716,9.737968645057242
2.8992395369253487,-0.22447158267354542,-0.039761011464670495,9.751387758950235
2.910484999495307,-0.20010793151423426,-0.03695294347027005,9.705550702900508
2.919160144642748,-0.2315047973858994,-0.022073251722931717,9.695005120059768
2.930456479838311,-0.2372506489692975,-0.017772076032288895,9.744818383295144
2.9390814967770242,-0.2203667806820199,-0.030401542733382407,9.724122000736395
2.9504261138919827,-0.20150713686889649,0.0036790752233041286,9.679059746301759
2.9590017416163596,-0.22267589743918897,-0.008816924963026001,9.707490546287978
2.9703963259906354,-0.2443893053061454,-0.028988384333210035,9.747539100506092
2.978922713647419,-0.21572601418096535,-0.029334342018060552,9.702629314311322
2.990361817508959,-0.20139548528111648,-0.008186907569245123,9.719536120491256
2.9988399574930615,-0.2146779523596432,-0.01964089765679971,9.757583079761567
3.010327401578856,-0.21080092061235953,-0.022644453293854484,9.773418287115197
3.0187586733494607,-0.21948561780681855,-0.0089290623404187,9.715231982951568
3.030291931675134,-0.25714451011323053,-0.002422771722652841,9.727690924218585
3.0386752957778365,-0.23239597622238353,-0.020324761636482648,9.740747075536149
3.0502563943407357,-0.2355514160382957,-0.023026084765255528,9.658970253364334
3.058593227129431,-0.22507742316807508,-0.013148161337604125,9.67792029782608
3.0702223940803597,-0.21265402306363743,-0.021644916898729126,9.754130881798652
3.0785141276243713,-0.23197779145683073,-0.03530460858849936,9.734935867686385
3.0901879874093066,-0.23136009827945317,-0.022363137703102505,9.663149056807685
3.0984342503546967,-0.2201135955290213,-0.021674762364587027,9.703165209857167
3.1101564618195416,-0.21555257513926845,-0.037900509185373764,9.767294492344705
3.118358816185522,-0.22660153783435946,-0.010514635689169948,9.709830153286777
3.1301243623979875,-0.23826442995950867,-0.024612347648778326,9.6943301463472
3.138278873653816,-0.22844016931033215,-0.043749267553088715,9.746410608761678
3.150089050579991,-0.19290787093942247,-0.05812285205746052,9.730631115896927
3.1581992709954436,-0.2085354740813444,-0.02075338852476381,9.697107582867972
3.1700542743048246,-0.21996862251134736,0.0025326596747427895,9.707544431739871
3.1781202737239287,-0.20368052500222306,-0.028632363282327444,9.732424694717247
3.1900160458364497,-0.2121167001317839,-0.02548330073727978,9.67564736649648
3.198036079409654,-0.21764311877727516,-0.022011291535744135,9.636299175956541
3.2099771739684413,-0.23153849084862682,-0.029958948230727263,9.747663582378513
3.2179546462382587,-0.19033697001899041,-0.04291064495359048,9.770845814917708
3.229939099731346,-0.22440055747917828,-0.04255618325184836,9.695019838098162
3.237874308921701,-0.23702687054850158,-0.008359198207676083,9.710861820769596
3.2499032860174113,-0.2126703255671969,-0.03916134914764192,9.775081686566772
3.2577984200805554,-0.2145410350403177,-0.030060915157629608,9.74838305764343
3.269871061410355,-0.1963922391463575,-0.025808649432455595,9.687691443313712
3.2777232735755613,-0.20850556402709003,-0.0039023609552501786,9.754024246662391
3.2898388452798777,-0.19748458412477832,-0.01856596501878392,9.715944068715292
3.2976504652423424,-0.2113546171613203,-0.024823729304517716,9.67208185002867
3.3098099189091723,-0.22716552726801167,-0.013686236981607511,9.709467224779695
3.31757785803551,-0.2425822769127058,-0.021975840724460276,9.748366759384233
3.329776375857725,-0.22079673102807187,-0.029564668811600112,9.735264217654057
3.3375031919031155,-0.22048829270718753,-0.015981576445159334,9.679865079620296
3.3497434053396526,-0.2428314964886652,-0.013556215939596281,9.730961502365622
3.3574297138610185,-0.20629314680259825,-0.027684810602521474,9.763421499125828
3.3697129137494577,-0.23506850941416896,-0.007461186976224094,9.71544117671438
3.377355180671615,-0.26380859474216883,0.002389834387128047,9.737724554530754
3.3896769774422904,-0.2270364887419888,-0.011344868644047445,9.740359590231819
3.397280857086073,-0.23351858849672472,-0.014976510433523401,9.743275326936313
3.409646099504188,-0.22613304020451028,7.340513615815264e-05,9.696501381921927
3.4172098578351786,-0.23192819695572303,-0.016298048264065498,9.70977547616836
3.4296124884120553,-0.21467431938537881,-0.039073798594289916,9.73780733844785
3.4371345390487784,-0.2069446273828338,-0.024823173499649617,9.647019394451116
3.4495765666295934,-0.2095293333181086,-0.0183091469684659,9.691725910799043
3.4570596406376,-0.23308695623328077,-0.039131040995430744,9.779255400944812
3.469542998266988,-0.21333157024787291,-0.014262676656834363,9.764129404240272
3.4769871045932264,-0.19618984618745847,-0.006134090901085798,9.696191172808527
3.489508461095122,-0.2185868255122649,-0.021774488778303507,9.705761747321516
3.4969112492248056,-0.21623450135342687,-0.026679224845995386,9.776043023574024
3.5094731346219747,-0.2075685076774449,-0.025240751686303523,9.7187087484594
3.51683786894364,-0.23638096384558718,-0.021196309494042827,9.720005388983543
3.5294383352907652,-0.23287059771895438,-0.011641446780639497,9.746497519940675
3.5367629835592163,-0.1948792093701495,-0.02277246167771976,9.722246052832451
3.5493999286453537,-0.20248368015830265,-0.007214483159936585,9.68951910732097
3.5566847384470703,-0.22823630327784336,-0.017365306293739925,9.699935359721655
3.5693610330779495,-0.20821626867958537,-0.03340820243075788,9.746434256043345
3.576607803428757,-0.21547792507018415,-0.05099960296798161,9.679316964501089
3.5893228596210984,-0.23515945818180212,-0.015502794546509442,9.667230472238021
3.5965329731201754,-0.24085975460635098,-0.029412267269536253,9.724385213136628
3.60928837217976,-0.2337107293617999,-0.055575365544756054,9.74101333901821
3.61646316207092,-0.23688827906948481,-0.033220798988525806,9.733460701656748
3.629252265746272,-0.2437307649747969,-0.016754242368738462,9.729396749331162
3.636386560503123,-0.22527991468568007,-0.012181064286639273,9.76792507229352
3.6492162796939813,-0.21469794211533008,-0.036251897287612266,9.753525663253258
3.656315667171005,-0.23787152534497558,-0.020348465467428124,9.706288716340062
3.6691799831185588,-0.24522360917954686,-0.021236743294446962,9.763262095680512
3.6762392076830905,-0.21907980305867028,-0.024170779480103703,9.714252132390193
3.6891427248379545,-0.21764655372595165,-0.006109827792801383,9.689467154473563
3.6961649973942063,-0.23807934911820652,-0.0011112968273958694,9.709887053685918
3.7091014396738378,-0.2476012564590178,-0.014965862887323957,9.73764317708624
3.716085901607546,-0.21598102645118547,-0.03693894633228787,9.706250240857193
3.7290606626670644,-0.20948447206674625,-0.007406179481288823,9.675386607077279
3.736008038158789,-0.2297752697369213,-0.019029959250738245,9.745373322113718
3.749018066265333,-0.23116552517361427,-0.015989599858404348,9.749244088483415
3.755929352892178,-0.20265345651680558,-0.0029358003828320028,9.711962335151727
3.768978341417569,-0.2383808327426744,0.026155275536530357,9.712157085338395
3.7758556401800725,-0.2337276512301528,-0.007379033890898324,9.74711118289538
3.7889408421404696,-0.21651853553867426,-0.0492122542898927,9.751092744070448
3.7957802025847145,-0.2156943418370711,-0.03015765372722146,9.680713665004712
3.8088999173100735,-0.21057005705380488,-0.01685730928029458,9.762756317035684
3.8157042029201533,-0.20405218879136064,-0.0557444159860519,9.742691881132776
3.8288587381159105,-0.1787740472035544,-0.0343082262674654,9.66535582027595
3.8356252008476366,-0.2231428632077669,-0.00464690175804362,9.684775020805528
3.8488138291328955,-0.20700791890377757,-0.016189366065222643,9.745474502662217
3.8555419399682616,-0.22685153890544377,-0.02213076993977716,9.726171273716997
3.868764497762986,-0.21552639708431767,-0.014432376124862934,9.6849406515571
3.8754598160763254,-0.24356123745409733,-0.030003112089935474,9.741019087248349
3.8887206847293454,-0.2069603496284002,-0.04373915396640753,9.790650557017695
3.895379348951149,-0.21515125320990242,-0.05118331332147908,9.718336728428703
3.9086757023525847,-0.22622882386221033,-0.02656459063559517,9.685002479960426
3.915300700340384,-0.22476266842015846,-0.010401492854804992,9.717674929552098
3.92863036659156,-0.19629620694873748,-0.02890073950898902,9.740625107054926
3.935221504550639,-0.20822974639866482,-0.008176491246215636,9.682541882053085
3.9485855282716544,-0.24025047057997437,-0.013221142834026953,9.725745327175753
3.9551403673486667,-0.22545080945317506,-0.01973508233767212,9.749805889323785
3.9685407216846817,-0.20567765893445308,-0.02995812237901652,9.697025923841045
3.97506323894424,-0.23168791247147105,0.0009020661070312936,9.684026639829877
3.988498035562367,-0.22165122335224272,-0.021782682943972044,9.744795292323458
3.9949865807153406,-0.19819499452740144,-0.04553984546592151,9.753866991528868
4.008455319245089,-0.21426467469770938,-0.021540229619706724,9.696270693315471
4.0149068920071596,-0.22837011001991223,-0.013299404920633636,9.700414893830978
4.028409352709075,-0.21162404712056504,-0.01177472315989887,9.775846329798636
4.034826541528774,-0.20787053338592346,-0.02051202866300348,9.737437702531142
4.048362187907671,-0.21529157941824653,-0.03336626990669053,9.70204687854023
4.05474591330567,-0.21518804531615937,-0.03468586522259277,9.755515399980844
4.06831634387373,-0.22019768392939423,-0.014149237221847086,9.73343565890568
4.074667484410953,-0.21746373634664962,-0.0052782679365766545,9.67584517530934
4.088270729118361,-0.24369751320494298,0.005162648767093903,9.717324524857533
4.094586953493935,-0.2501596057856162,-0.033803150080904905,9.76136000622558
4.108225849098331,-0.2235413539378913,-0.02681889018996485,9.701520561860605
4.114510194374084,-0.22277380898452007,-0.008144143634365941,9.655948916975404
4.128180118321274,-0.23312453725806903,-0.018486972299875917,9.719303579519107
4.134430777631526,-0.19957354373056818,-0.025198886495459642,9.733126054446759
4.148137015324092,-0.2084731156613571,-0.03491465112912082,9.710117874065416
4.154353511456427,-0.23758475088615535,-0.02343030878228112,9.704419516584505
4.168091704890757,-0.22834909285769517,-0.04763048381556665,9.767086566977442
4.174276448660613,-0.203678531843439,-0.03181839108077704,9.748906527789513
4.188047952679372,-0.21576391834183684,-0.019223074090485563,9.689485071348676
4.194199154955491,-0.23001159414345135,-0.009032236795464787,9.73163982942472
4.208003627432666,-0.22659984119481344,-0.031292673389970556,9.722155101409152
4.214121206516992,-0.20711616023772028,-0.046776177139794546,9.701935197391254
4.227959496355695,-0.251183677954665,-0.007146724131834037,9.686840599377582
4.234045079244734,-0.23712591332812277,-0.008244555807694337,9.737158287783233
4.247918351395892,-0.20591047195690942,-0.021032640207644098,9.711751814850336
4.253971241535181,-0.21595718424786833,-0.015974741382313896,9.652396049719055
4.267874744153687,-0.2316587869457703,-0.00827019909531292,9.718782438607864
4.27389466146485,-0.21949170399956477,-0.02521134698189239,9.775227542524842
4.287832619837337,-0.21343160762609148,-0.022463351162693695,9.704612365054793
4.293821994246973,-0.23495478848059637,-0.0058634234485685196,9.69890201062779
4.3077942084471,-0.21865507051569633,-0.006763908032730521,9.725680455469993
4.313750319389038,-0.21348082728495796,-0.023473400313043288,9.742965439853457
4.327754715629302,-0.2027508724373195,0.004957778349823185,9.702611377929832
4.333679702269338,-0.22897620769221833,0.005522006682208656,9.700469038860687
4.347713566997679,-0.2063905412719117,-0.010470701800579149,9.74935665034036
4.353601907971118,-0.1784428304277966,-0.03173733111666854,9.68678060263877
4.367667620344835,-0.2090902874105027,-0.008807643842492573,9.682936466654624
4.373526598680162,-0.22573499671200586,-0.013344360147628966,9.739080892826523
4.387626337670174,-0.20824145233740798,-0.030633789771657094,9.745507487769336
4.393451592063883,-0.22321162258289637,-0.023889713499357992,9.73960570155933
4.407584276376837,-0.22312943635285856,-0.0003205706067203653,9.732257655961677
4.413379196783101,-0.20325276501714032,-0.018415259428976347,9.766838093385994
4.427542196117304,-0.21321115601295693,-0.025166696996278125,9.716603955461732
4.433303194052187,-0.22667368889017367,-0.003778119226559584,9.697265696212115
4.447497711760337,-0.23942845391146075,-0.026785794100242472,9.73890543631335
4.453229816955985,-0.22395252218668732,-0.038264559767307645,9.731070127753386
4.467458818408338,-0.21505049815466018,-0.025473645512854644,9.701883363105203
4.473158284159406,-0.22700732076337238,0.0037948636128086015,9.67766838960473
4.4874181318730715,-0.2259327953929079,-0.03135490952066575,9.738203261742768
4.493084956976918,-0.18309518176665648,-0.04798398725117998,9.693117784644542
4.507379105941801,-0.2231054125564451,-0.02641135940270054,9.671170932413093
4.51301643863066,-0.21157431692525341,-0.02426191967312746,9.741945046909155
4.52733839978875,-0.18599278051602042,-0.05414850685360692,9.75515904264543
4.5329415675017755,-0.19459598020137622,-0.01684502731175297,9.707951024928915
4.547295790403896,-0.22589851503999492,-0.01144709259986524,9.706216057257215
4.552868274792888,-0.21891859527325458,-0.026348447423679016,9.755365382365635
4.5672565604867055,-0.21518448658258654,-0.0376979655161107,9.745253167823734
4.572797894318941,-0.2202808386969227,-0.01853853532187441,9.683558293387742
4.587216029409821,-0.237874371434542,-0.0010594907696736629,9.7411142367871
4.592723214427164,-0.2028787260556154,-0.030602294819532236,9.73994239148287
4.607172310335495,-0.18898721259363055,-0.03476138313787534,9.664080817382475
4.612649059043029,-0.22382698359505276,-0.031043030103279384,9.688140395607899
4.627127399500071,-0.2372252949108301,-0.01731120009403897,9.738133318404643
4.632572972014684,-0.21353808169637234,-0.014240265858138217,9.714192275673007
4.647085564333035,-0.23761167533194597,-0.01667800671959488,9.631385259135879
4.652500920117185,-0.23584400971353367,-0.018048902497171365,9.712215879131826
4.6670472996026255,-0.19587722241876362,-0.03716978890553305,9.76652520943721
4.672432065818328,-0.21586893596736695,-0.023304814481129192,9.706635302220398
4.687008966877095,-0.2269106282437217,-0.020650758019830597,9.729098348892673
4.692363721025229,-0.2170143829380834,-0.003413675887719858,9.757191583863538
4.706971533016718,-0.20189787664880499,-0.026414806695144816,9.770759847846767
4.712295066877921,-0.2309150425155062,-0.017891543910521477,9.691115153858657
4.7269349201430035,-0.2351987106909142,-0.002995144504218938,9.71731912217032
4.732227222324323,-0.21447302956531608,-0.04200553097937152,9.737597066494525
4.74689862032863,-0.22788738433403036,-0.05052366301475732,9.704169248108443
4.752157310866971,-0.23162466510483207,-0.021320933409177942,9.685992046125124
4.766854812372566,-0.21613727548766926,-0.02190064285038728,9.738028108425047
4.772081524951623,-0.22108217976951544,-0.026224596600270683,9.744625120590733
4.786810949531053,-0.20345096242349095,-0.02568677866868652,9.672462081521498
4.792005652576306,-0.22073274511461716,-0.023405107275784116,9.69706976462376
4.806770393598191,-0.24605496358581933,-0.023143945262848558,9.799150549352365
4.811938344910815,-0.24703207633400082,-0.021984592637078183,9.740849140407818
4.826731676215593,-0.24485354916661925,0.0014691379922849776,9.709209171332448
4.831867231096343,-0.24439954321210947,-0.003997778273477852,9.7488384946108
4.846692800644654,-0.23702508029560093,-0.06261883656105395,9.743745880459104
4.851797858437333,-0.22760417326135546,-0.017747591770568068,9.713235154032086
4.866653721675481,-0.21593676720319985,-0.0061251451963608506,9.707106623603977
4.871728512373329,-0.20036313661980373,-0.008331688352562762,9.752306652158442
4.886616945581513,-0.19947951816753856,-0.03418376247055267,9.709611548051065
4.891660278026384,-0.21256132074550166,-0.025180778336436012,9.662162805634898
4.906578272869575,-0.25043585145157227,-0.013881256424990244,9.736247903522928
4.9115882345314565,-0.23318701032427705,-0.03551050746960889,9.742810779520784
4.926535117732107,-0.21724629820151978,-0.014757433854423267,9.720015330820608
4.931513703731243,-0.25617717655658095,0.005235427352386608,9.694020597896976
4.946490711052902,-0.22794638525476724,-0.04050240258845015,9.750227053401085
4.951436889011822,-0.23493884081956787,-0.054040936113129115,9.745238182878678
4.966445453174083,-0.2315013369273759,-0.024774495624688905,9.688251326577705
4.971361605362294,-0.2198030053048796,-0.0022259672128880433,9.7482510915135
4.986401256313792,-0.23095243139429628,-0.04199051441493823,9.71843348483016
4.991287779831157,-0.24265779804472937,-0.01830103975276735,9.685890429117181
5.0063590071709845,-0.22527378173563584,-0.006550538019559275,9.709706102700823
5.011214495299097,-0.22043600530000562,-0.005327199059861468,9.7446753816142
5.026316952112036,-0.21319406287761677,-0.017431385872782326,9.72513908236729
5.031139580032096,-0.21635066690417157,-0.013508839557078161,9.687427971140039
5.046271111698499,-0.2439252877015406,0.011352494364627949,9.72181558658927
5.051063005879762,-0.2384979515073908,-0.01268523998740422,9.751552774540025
5.066225958828417,-0.22197120582525795,-0.01748632572262561,9.714104644775844
5.070987219399247,-0.24487640592272752,-0.02092110310681195,9.703381456146687
5.086183094869241,-0.23196127078033643,-0.013136520141264381,9.751010048680413
5.090915913385163,-0.22694864496628672,-0.037080432044694744,9.739942907430033
5.106144482861964,-0.22262451257995727,-0.0283905305220222,9.686740213460292
5.110847183713267,-0.2321808316341112,-0.01747967133548146,9.734412380463896
5.126105308063039,-0.2107741340244885,-0.019568605051328455,9.751386259508312
5.130777513832124,-0.1823939247187246,-0.01615607935426793,9.69210790304858
5.14606715896578,-0.22809462841586922,-0.005584043354316422,9.695025639445385
5.150706836099404,-0.23157495888204832,-0.02724774928550236,9.743680546871367
5.166025302829611,-0.21943488201040498,-0.037755310068231976,9.730965428095944
5.170631809041835,-0.2551107473495395,-0.01609049749173849,9.68320258396612
5.185982166522212,-0.23003949617389965,-0.013487678474737518,9.689257761544244
5.190557239637375,-0.22809924568123066,-0.015256298637788449,9.773357701149928
5.205937647586656,-0.20342309889582214,-0.03829679493364247,9.730402747050698
5.210484073171252,-0.2645863144065126,-0.016062157899099608,9.718445952150223
5.225898073517312,-0.2544564153603381,-0.02755723437447995,9.723676873534803
5.230414534778462,-0.24003172561798578,-0.04410437123215975,9.751332086034184
5.245859517749694,-0.23392216873593097,-0.026180467166149742,9.702595327203328
5.25034481513259,-0.22942449988473776,-0.0171791140779532,9.707762063587209
5.265821238906401,-0.21120815181005395,-0.023501563797534618,9.734773425573783
5.270274489028556,-0.23297758850855552,-0.02752149475409617,9.710570328539792
5.285779117482054,-0.2167419563766317,-0.014274083832687403,9.68769587706746
5.290199534168448,-0.24175627200554398,-0.015610881868737889,9.720935736570324
5.30573614821242,-0.21219079312820624,-0.03118599173724535,9.73488708545762
5.310127750020403,-0.21296021520730246,-0.009465800353382138,9.705121006945486
5.325697157609295,-0.2483693710184335,0.009629311321248505,9.7191237746414
5.330057226079532,-0.20814613190266126,-0.025698411423975966,9.770261438855975
5.345657702391307,-0.2063929197982655,-0.020314620958853176,9.749296392221332
5.349984689015455,-0.2347243811906732,-0.009113302572450067,9.713492610602675
5.365615004907017,-0.24582581872906764,-0.012581009853801223,9.764111503638215
5.369911261612219,-0.2060066421718086,-0.041218506896917195,9.738928644703826
5.385574799698863,-0.21085846789841345,-0.015105654926909597,9.662892389285705
5.3898397332850845,-0.22819381116895737,-0.02793475641020148,9.691103188950787
5.405533063218242,-0.21455448665155635,-0.028520930389851696,9.721127663031389
5.4097670716724355,-0.2104203661026325,-0.02912550710200231,9.714533340642063
5.425492446698553,-0.20260018508515104,-0.015647206468583304,9.655369690629438
5.429696446896622,-0.2187482645678561,-0.005373184089013536,9.72518428258784
5.445454384634381,-0.21862142670969298,-0.04040319773572206,9.77789961710162
5.449625512843088,-0.20922666034561774,-0.016181363377019507,9.70577879079368
5.465414110372698,-0.2251557923408155,-0.005317967718619401,9.716653479049281
5.469552158787541,-0.22104073840838367,-0.026095678862450275,9.72871995557671
5.485371706880982,-0.21899016830438195,-0.029090479180350615,9.748588774979867
5.489479155105598,-0.2207274845602375,-0.02656726141283961,9.687250167914321
5.505329241269349,-0.22315903134390852,-0.03615345931294712,9.691902023267149
5.5094061365418785,-0.19769417123833613,-0.032093349724962535,9.72313418877348
5.5252893946679436,-0.22854232028009155,-0.036482131643189815,9.685429295215254
5.529332882711828,-0.23998602596121973,-0.018824207556639883,9.683926576598642
5.545246901690732,-0.23509455440805135,-0.018313588699732937,9.720209753060002
5.54925981070347,-0.17818546669827368,-0.04004331499747672,9.713891614100406
5.565207359655484,-0.21254089880735794,-0.02209102051861993,9.669117682779037
5.569186867097257,-0.22818086729859136,-0.022964592422997025,9.691652193152585
5.585163615096021,-0.2004058663187829,-0.027060463541224652,9.742679516699303
5.589108799634732,-0.19454476842368232,-0.027913513455443954,9.731238675942986
5.605117047875034,-0.2282079978731527,-0.02351330632068973,9.708779267817231
5.609029455692931,-0.22409765109352184,-0.049854980284285665,9.738493670822972
5.625068754521741,-0.20832735741069802,-0.04491801229201973,9.721402310280558
5.628949454592142,-0.23497038907276785,-0.039209651679256455,9.672953240399115
5.645023299357358,-0.22392807398113945,-0.016753148277595685,9.699332310374553
5.64887210832366,-0.21245487428148582,-0.01729894647942593,9.744834111566714
5.664975289008881,-0.23191508212232878,-0.03144041074418577,9.700557062380918
5.668791876859628,-0.22129916546707126,-0.022191490027316543,9.675907024289014
5.684928964441475,-0.2286260211760088,-0.005355620610555106,9.718828075998989
5.688714844389816,-0.1951419126351555,-0.051933164088963625,9.72523157448642
5.704887505499446,-0.22672294768084422,-0.01949160412100483,9.72264652512023
5.708642467889568,-0.21671299908666228,0.005176239544305691,9.706161120633773
5.724847553233467,-0.22513336158359104,-0.03328521742238432,9.765249750857697
5.7285682856578095,-0.20736131891416662,-0.025777049357515545,9.76392032257921
5.744804774778523,-0.24258240818466045,-0.02052399515351964,9.7056560002271
5.7484938782245925,-0.2629266048293772,0.0070181706868599515,9.734485604461234
5.7647604597316535,-0.21137661167634844,-0.01035030549743484,9.766196164354325
5.768413713589174,-0.2018392690962456,2.8742518413044298e-05,9.725318233819031
5.784714261268599,-0.23201909241960184,-0.00486292361471464,9.707668637512652
5.788335832313687,-0.2512286334523097,-0.04602880613128033,9.748814321452432
5.804668079603053,-0.20474552121517942,-0.019017586658691427,9.728777145472604
5.808257691099916,-0.19876314162169162,-0.008352877312394221,9.652957637824054
5.824624856572373,-0.23317455853795324,-0.0011293466933001719,9.728760739584786
5.82817873935283,-0.23843577539573385,-0.01910573050974331,9.764343020473872
5.8445773485542105,-0.2240916486233074,-0.023394227564250164,9.730833677787299
5.848101111040808,-0.2169789061824529,-0.00312223623340205,9.69844011791584
5.8645345031778735,-0.22850141912213026,0.015688234794690153,9.755934740665248
5.8680238915092096,-0.20947524070798026,-0.0195082909402515,9.764519168744494
5.884491622987069,-0.23269047730004502,-0.0052164771980233405,9.698158015446955
5.8879486640487215,-0.25856189779512595,0.009110333362184654,9.748085834935587
5.904450470371068,-0.2260102005246895,-0.009879072490349031,9.763072694689821
5.907876728802562,-0.2414826443393525,-0.023519709253536365,9.725601138620085
5.9244126833042765,-0.22230578610420074,-0.020119100230983886,9.704685330606175
5.927802672476487,-0.23611610758502707,-0.00249079280574138,9.712551630085217
5.944370274985207,-0.20175587918549776,-0.031517644371741704,9.729996037314189
5.947726892136439,-0.24168585761057135,-0.029390374295541803,9.659950980344963
5.964329717080817,-0.24262869096981948,-0.012198558951279574,9.715854031549965
5.967651315980839,-0.23144890909581822,-0.03388111717124891,9.763812597473413
5.984285950148607,-0.20462926428286898,-0.025654924312339487,9.706844804201674
5.987573127339779,-0.25764606157653314,0.007211063524950995,9.713269070031897
6.004242487060495,-0.24303768798652173,0.0011723005474873025,9.741588687888507
6.007495446813599,-0.2249916694807417,-0.02817212482408033,9.729612884081995
6.024201231775044,-0.2313729026772349,-0.001351792508225548,9.693512053198942
6.027421559536431,-0.23358242256823747,-0.01190830619786729,9.702368937048627
6.044160570808418,-0.21397807064840618,-0.016552401958675387,9.735439876251753
6.0473458759183245,-0.19123682618473636,-0.007853164556776137,9.686114204007175
6.064119231069942,-0.19084777149667162,-0.01741521272221977,9.686352475813571
6.067269446803329,-0.22709746098491687,0.0061887988704121405,9.754532495288395
6.084075921744709,-0.21502522440710067,-0.03032131395841929,9.769787174239822
6.087188813012474,-0.20773174950895515,-0.014867321676908084,9.67025930262802
6.104030375477322,-0.2085113225855063,0.003307891136765538,9.685050220007207
6.10711050739612,-0.2096633306914955,-0.02754511085406967,9.763164745547124
6.123986222890726,-0.2076477032721526,-0.03693270806324356,9.735514577700064
6.1270310274433974,-0.22603034778689537,-0.022072099883042828,9.681959515556017
6.143943034663471,-0.22460573527616717,-0.029504574672625825,9.71404677477522
6.1469528202117,-0.21560586790007644,-0.035927434638685064,9.736901655937798
6.163900167928475,-0.22148539730066075,-0.01436287582845864,9.719667509535446
6.1668754588556896,-0.22788916020866,-0.002459876662631863,9.676343070046984
6.183860416260246,-0.2268159633348116,-0.03697664090239201,9.742498640313793
6.186798917118563,-0.210169210174467,-0.05027211489157258,9.712712106910491
6.203818175812081,-0.2281660877401875,-0.02327796219126188,9.676829949936367
6.206721183617517,-0.22954502949807976,-0.010968019565935624,9.72285759369292
6.2237752012556316,-0.20211242099488608,-0.04033631956935469,9.723591502808837
6.226642526090313,-0.22059921844159439,-0.01412843940167877,9.713721492453296
6.243735827109799,-0.21964253479047943,-0.011982057456883244,9.681858602308202
6.246566437958426,-0.25268005366536306,-0.020748871297423747,9.741427603102057
6.26369360920182,-0.21744886974746652,-0.038353567484123045,9.773949825880276
6.266488035904548,-0.2248988769124404,-0.01362319145270624,9.704571220577222
6.283652137817971,-0.21561095402674743,-0.03142972145406517,9.731383454403748
6.286412357688487,-0.22548593486316984,-0.046923011980712165,9.745265944992163
6.303613538454153,-0.2056243826528383,-0.04154332874041019,9.703138137753271
6.306335514859873,-0.21492675365831543,-0.010968603217511955,9.686566800666592
6.323572711961482,-0.1988284238240057,-0.035020568616805525,9.72492049059713
6.3262580540342475,-0.22181303157734936,-0.04317168565071246,9.739762225673466
6.343533316428066,-0.21676601928647024,-0.03855270394041715,9.673903190693279
6.346183750983685,-0.24688957885174617,-0.017116505424185476,9.71543614731214
6.363496032699362,-0.26521158594769495,-0.027110334620951467,9.769781773530303
6.366107955536551,-0.22043053647488173,-0.03997266660401036,9.724475611816306
6.383458305568218,-0.223696514417804,-0.007450385243907002,9.725049529719886
6.386034010482181,-0.2291135863998513,-0.01305345208757221,9.747549767238603
6.403421626005033,-0.19633621873984314,-0.043035705512639334,9.761646842164312
6.405959028685167,-0.21893728600321502,-0.006301973322242383,9.695925853070893
6.423385280973119,-0.2452112994987423,-0.009613443476606654,9.720920924416037
6.425882211433479,-0.23049880873715192,-0.022912959547747632,9.770046466506685
6.4433457137591965,-0.21531291644157846,-0.012106514762919357,9.696069754191893
6.445806671471097,-0.23462457636177372,-0.01566390900808174,9.69559076852598
6.463308635442999,-0.2091970954951578,-0.01856100631928355,9.740281538394859
6.465728842745619,-0.19062427573621596,-0.022522582261208235,9.750277238093487
6.483268760258221,-0.20416773176272124,-0.02236667658787768,9.691509725085636
6.4856483058561105,-0.22212424784905602,-0.01499331779549293,9.682954866952155
6.503227253447694,-0.2218955043301447,-0.034009640792601784,9.761932783146332
6.505569869109945,-0.22593026980402955,-0.04391124809393889,9.763920063578759
6.523186567318788,-0.24642597931526297,-0.012721559533498142,9.696986693269942
6.525489200073575,-0.22306534196730052,-0.009739852969844082,9.740919043361151
6.5431430211488415,-0.2323857276671393,-0.027505602424862274,9.750338719946509
6.545403835409684,-0.22151193528384852,-0.01961616341174774,9.69499281672459
6.563097107494455,-0.2356682278517861,0.01012616086254223,9.7111955262686
6.565319075977382,-0.23150692557309996,-0.009018310754474733,9.76545032635941
6.583051980590264,-0.2107933297788991,-0.025810415026332467,9.705246403731435
6.585231397238858,-0.22883977266070402,-0.018068810420757177,9.681023268068593
6.6030042322183515,-0.23342565703759616,-0.01739128769966053,9.728614806781454
6.605147547065496,-0.2207754709545334,-0.03967414593246559,9.728565221342896
6.622961626565451,-0.20151208331994386,-0.02749539953733747,9.726252498161307
6.6250645081608,-0.24816280776423869,-0.011841358184400736,9.696435957028358
6.642920789374958,-0.22118087874783235,-0.02911914068611199,9.747619342573213
6.644983254088709,-0.1974021799239326,0.0034670675249984504,9.748418186075378
6.662880420078873,-0.21039935273736024,0.012481413429181036,9.71611516212977
6.664901984992979,-0.24803412346884343,0.013001513677186749,9.751852555364465
6.682840956236776,-0.24265255708359526,-0.016096195202141457,9.743090091031934
6.6848201380388215,-0.2314770111736967,-0.013339830889530004,9.721910841220527
6.702798539388705,-0.22136396438462305,-0.0034024482877544763,9.683206473215698
6.70473968006056,-0.22986558342095756,-0.010782893521980495,9.712446393799189
6.7227617132116375,-0.20444048931086406,-0.02441366712794852,9.729342103405264
6.724657188283423,-0.22721684277630494,-0.02808727736786391,9.684474304443492
6.742723789259855,-0.2503949349085616,-0.027719662850064906,9.727611364546314
6.7445791694089445,-0.21022712826673592,-0.036759025358214875,9.768707125938544
6.762687470503799,-0.2084599679478985,-0.028205914107176572,9.731571798886508
6.7644986530941,-0.2035778941319143,-0.020180283964382865,9.691605776432906
6.782647306032017,-0.21186436956791732,-0.026927625981680508,9.722693986678957
6.7844144580563714,-0.22797880454528419,-0.030983256486694734,9.765172795331402
6.80260692105614,-0.22456195728594183,-0.021158497515741986,9.722369407590326
6.804329993878246,-0.2534924225544742,-0.012664517895708695,9.724626877237512
6.822565090231625,-0.22104681223641554,-0.03985007363374505,9.764675290266505
6.824245354603652,-0.21070958881421784,-0.04011618675531419,9.71103710001615
6.842527259242212,-0.2275672539199042,-0.006379134876774838,9.68260352276208
6.844163224722541,-0.24391661271498286,-0.014818111960841178,9.71902286321849
6.862487767051784,-0.2272856418628224,-0.03644463443582663,9.748166511221884
6.864080517113154,-0.22678699541438974,-0.029351751868806,9.683605537445352
6.882449805967702,-0.23818191255575122,-0.015605268687394667,9.683854976709656
6.883996499345471,-0.23537351324578548,-0.015872644920443935,9.753942404334692
6.902411665023507,-0.2216954757360319,-0.03674988037227121,9.730334581583074
6.9039141074269,-0.24881979413055244,-0.030409951796393924,9.718807212247293
6.922374086039206,-0.23018580459021848,-0.01379927676586199,9.7383959439268
6.923830661846995,-0.2143726789166937,-0.020712665305638735,9.761641732769125
6.942337646548454,-0.2134708199765231,-0.021534034690584933,9.728539798712253
6.943746460474525,-0.23661499094901595,0.006272200197773976,9.684432692683808
6.962298324935918,-0.22651437087979262,-0.013370461501117146,9.740783231963881
6.963663226213446,-0.22989473724353018,-0.03613802188120889,9.711074777375524
6.982260335551988,-0.2464159375843599,-0.01987904443115642,9.661179770917158
6.9835749763373105,-0.22688831985333272,-0.010936280412865911,9.699694500862611
7.002220038392211,-0.19707102729099416,-0.040522755603362194,9.753934669156049
7.003491765890437,-0.22917152341075556,-0.05211034077928963,9.712480974297627
7.02218584294922,-0.2423408158290971,-0.032881811356966086,9.660557496620465
7.023406074083881,-0.2442959051001325,-0.026142025843761452,9.750024506959948
7.0421437206778075,-0.20560986125123393,-0.045097465522960185,9.771241348745823
7.043317181735626,-0.2149504087137186,-0.035594796485526235,9.704466639943405
7.0621047888731185,-0.24937506070368318,-0.025209435012602272,9.725329269772097
7.063231251549371,-0.23376654722158846,-0.02019264392338404,9.763801407976365
7.082071421092523,-0.20635978043864298,-0.026099736466179333,9.734418191031082
7.083149553364329,-0.22566794009886051,-0.02011933045534577,9.680905207098379
7.102038136745762,-0.22680204159074238,-0.01109903237149919,9.70507855602875
7.103066475830404,-0.21266549349244007,-0.035306431931594655,9.729664554439532
7.12200355125285,-0.21917283021992914,-0.03718455819067608,9.70364323879293
7.122981514147917,-0.2298621727990783,-0.021569006237824553,9.705989689328261
7.141970035734264,-0.22018632540637606,-0.03736726972820489,9.763122047259095
7.14289573809628,-0.21296743320582284,-0.05967253225367102,9.710257068957109
7.16193303886286,-0.23975632846960476,-0.00587539543779615,9.689780487025653
7.16280751077776,-0.2578487425034654,-0.01104076283894602,9.730363437162506
7.181895465732171,-0.21025547792515403,-0.04371942679968055,9.755671201333287
7.18271807746748,-0.21566028844640642,-0.005781447919088882,9.700921013434627
7.201857666428161,-0.2561064869474508,-0.0017551491027856837,9.702526997566618
7.202627898832116,-0.23724975841321125,-0.012146166538696438,9.73085492255493
7.221819064199493,-0.21380236016319112,-0.02546659253145559,9.7021366803503
7.2225351407186915,-0.2208697868871124,-0.009069383980220629,9.691098473592232
7.241778512697225,-0.23207864252256846,-0.0050068081996423,9.70736280545842
7.242441868430216,-0.21858377379426994,-0.050745888197894176,9.744229503436314
7.261741331094757,-0.1967591677655879,-0.037307052889682515,9.682584763102286
7.262354270376037,-0.24174898878368345,-0.0069595644682405415,9.707256225069639
7.281707993123185,-0.22749425795784795,-0.009900962190327125,9.741200529207081
7.282264349762539,-0.23235907653016222,-0.015521163821319307,9.73417044592875
7.30167124815957,-0.22867512201639198,-0.03556849266686028,9.724869834213035
7.30217257614669,-0.23781844405843355,-0.015598106511067439,9.74239793690933
7.321637321764024,-0.20912394421123015,-0.02636770164994523,9.773518265141254
7.322083787543037,-0.21832527102902594,-0.024686661881266517,9.706165956274205
7.341603602203692,-0.22617377433196073,-0.005781864316367742,9.694056865766669
7.341993585865911,-0.22366390451761872,-0.02515450261536868,9.770651092321163
7.36157120405654,-0.20969774764599317,-0.04846026648601415,9.70875010277371
7.361905360968735,-0.21554092555061127,-0.03442064007922893,9.669746657852544
7.38154026987752,-0.2293834648172608,-0.04509030141078363,9.70521767847915
7.381818189406497,-0.2222075949908162,-0.03110264534097711,9.726512785922568
7.401509381269032,-0.20096077332921566,-0.03862493677270628,9.708468246834375
7.401727280046355,-0.21188633322424608,0.004996774671368445,9.672541462343176
7.421477793430656,-0.22713163260860356,-0.01166937562444763,9.750247224829714
7.421637531934606,-0.23046210838603093,-0.026251608546724974,9.754247701239487
7.441447093220473,-0.21610154551997768,-0.019279111435778606,9.723956965872572
7.441545716619306,-0.22231959595185347,-0.009573090735515124,9.744472037843316
7.461412295512412,-0.22482506985241382,-0.0218946062472597,9.755890201442272
7.461449636154291,-0.1569287342719935,-0.04134567932985002,9.753775017353016
7.481380037922125,-0.2156467508989255,-0.028525769850766446,9.700071963132775
7.481359260710495,-0.24845210549340385,-0.01587283600466485,9.734640888420405
7.501352162927682,-0.22411664353164906,-0.01141113908668182,9.717032747921056
7.501271088074206,-0.2285839116413265,-0.03187096813481151,9.670867936696643
7.521326315016537,-0.237750937567015,0.009347342726842445,9.689299590367655
7.521179726085013,-0.25110951809900434,-0.01435442048523923,9.728034068809853
7.541295358362572,-0.20929193266416352,-0.023852390895800085,9.72985493823765
7.541085432449693,-0.21506415937828088,0.004743502469430098,9.682292142410569
7.561266412048575,-0.2254021516970331,-0.009100333565498844,9.749878078508846
7.560991676084257,-0.21003462669303116,-0.028051427524140252,9.753725723492385
7.581237800886586,-0.2065109681564755,-0.013293798186096002,9.705912048468194
7.580898706374564,-0.20679867365759558,-0.023079721379135713,9.725527137780471
7.601209443422116,-0.21676023222466168,-0.026740079401627526,9.752073168550613
7.600804107755128,-0.19905843735382356,-0.018090766260304463,9.726636104133265
7.621181448820449,-0.21566276780667812,-0.021759937706180045,9.675559423108519
7.62070961188744,-0.21966998165979115,-0.03493863020351513,9.724551653105204
7.641155651051636,-0.21957431486726173,-0.024699795686629437,9.751873988273232
7.640616079464384,-0.20231236300986022,-0.013268969751769015,9.659775436651541
7.661128614385708,-0.22246281732264875,-0.01738185199274779,9.683283950920009
7.6605198019738,-0.242677698972063,-0.02458711733777796,9.759418817711172
7.6811019026940714,-0.22889961428817343,-0.034133031816525265,9.737291845610095
7.680421798615961,-0.21745223281439688,-0.024247092136367325,9.689349708283123
7.701072495699194,-0.24745840108332812,-0.01837998436660113,9.717600192455341
7.700322150910043,-0.19786949374406693,-0.009002847781410951,9.779953677108868
7.72104575516875,-0.19577243931947375,-0.030728686680654108,9.724349328393854
7.72022288892224,-0.22681505617165637,0.004264066843263986,9.724955129076138
7.741020039235995,-0.2468867708172514,-0.021274538074733982,9.768383580857737
7.740125682403205,-0.2575742605978347,-0.019426250688922973,9.721457155276097
7.760995644243508,-0.2328666076186004,-0.019108705444513048,9.694972577715287
7.760029117556697,-0.25599729555111245,0.006417002134227576,9.692366088439625
7.780974277392934,-0.24353691235342756,0.006117605766003717,9.746975189765797
7.779930459083555,-0.20717894874152587,-0.0034483609962233886,9.691957512427997
7.800951435981295,-0.23524198510635158,-0.005229155369242167,9.670884395438419
7.799833817906245,-0.2253051244293973,-0.0006417369148130359,9.729678950739638
7.820932716015326,-0.22566276408248837,-0.02171716480296097,9.738380648089484
7.819735945934513,-0.23844423394109662,0.003112138693361417,9.704023872841864
7.840909074453918,-0.2263579109027379,0.011866992919899092,9.695800155951188
7.839632977074436,-0.22312524298202774,-0.04151978786105207,9.772584898897659
7.860887404714638,-0.20971784893029624,-0.033146861840077195,9.775561521043986
7.859533707298795,-0.23532165670199676,-0.01787141017489978,9.687763851381291
7.8808683966703645,-0.24105359697903786,-0.03326383073886471,9.734404371587273
7.879430736124315,-0.23721535978330918,-0.03600259787047897,9.74006992674253
7.900845463045215,-0.1946470171382309,-0.017984343411935458,9.695172042490459
7.8993285158628375,-0.23430118754730023,0.0009034197037203506,9.699709593455903
7.920827893593986,-0.2376536388734756,-0.03272184407616678,9.729962144793339
7.919223163811712,-0.22383681758684643,-0.03386880108104151,9.712289362271889
7.9408048719002045,-0.20960067223373716,-0.014696075757610658,9.632720393699175
7.939115630226158,-0.2415437581819653,-0.013019622123162954,9.72031454543816
7.960783601091584,-0.22783451419699405,-0.030237758442981596,9.755651563191819
7.959007285072606,-0.22152629327887655,-0.014528528633014829,9.715919417689397
7.98076433661349,-0.23940413858467427,-0.010783380827790158,9.703937764178576
7.978902729490575,-0.23820426407846704,-0.020080634750650948,9.756742954785167
8.00075037409027,-0.2085974844241739,-0.036870421159945405,9.747519600563152
7.99880123983098,-0.22037134931559904,-0.014116918742789059,9.70253333003906
8.020737395643152,-0.26971324606033387,-0.0012917125308856568,9.724098716968742
8.018694114661502,-0.24065152652210298,-0.046308581517837955,9.743132727848113
8.04072105612155,-0.22063647283108742,-0.03192465555520214,9.666111248623043
8.038583440900316,-0.25430864297673167,-0.008094467954523166,9.684775279571156
8.060704633576458,-0.241331358581819,-0.013527424291335088,9.720263123093778
8.05847533527285,-0.21092685499191619,-0.027489530790057653,9.738083046620927
8.080694236433057,-0.2516537786587828,0.006875118431470172,9.692886056235915
8.078366412383422,-0.24009524425177783,0.007780722878057227,9.715466801515749
8.10067899750557,-0.2113764376516661,-0.004937890508669016,9.76851193536801
8.09825563383408,-0.20419964516475103,-0.03295475367999915,9.718818721219693
8.120668883322308,-0.22269970617526702,-0.023009164773308943,9.727715921370779
8.118143885613188,-0.22125194268437978,-0.005479958147106749,9.753254284476018
8.140659637288785,-0.22601456202292083,-0.026216301939352756,9.724632999345992
8.138034902672901,-0.22684647295542634,0.001210865051612424,9.699432456489632
8.160652766466363,-0.24088702046120622,0.009889779560492423,9.705390841031655
8.157925131918114,-0.22235191231632084,-0.0025236473389202148,9.763492353709841
8.180648675199357,-0.21632036144757893,-0.03304368855802855,9.698456084790525
8.17781343648319,-0.2142752002640866,-0.013821004859737827,9.671584025207306
8.200642110301345,-0.23376957196731277,-0.013721508227056345,9.734498164111745
8.197699870308778,-0.236757824837414,-0.027291889372720552,9.761341253622797
8.220640468069018,-0.2154341258288822,-0.03854165519024549,9.703892292713405
8.217589056445219,-0.2160101093373508,-0.013705439250121847,9.692106161794356
8.240638981921915,-0.20419776655956043,-0.03769116251482661,9.739938845534178
8.237472676266206,-0.2060026617950853,-0.04340670439143934,9.736317247572043
8.260636112675787,-0.1993733146398678,-0.03484146068218969,9.715159082478044
8.257355969081976,-0.21956923320364571,-0.02051094207151311,9.74933268108994
8.280634782432259,-0.21535620139723693,-0.04317711053758565,9.763755309631028
8.277238264116853,-0.20701517006109368,-0.03612877659953533,9.693054989036051
8.300636733083754,-0.22411866032861374,-0.015901045751554637,9.704427424398583
8.297121799602184,-0.23434900555948845,-0.03289250510500528,9.75622726523385
8.32064201966851,-0.20702976149113886,-0.06092755835252926,9.707925549204452
8.317003140918644,-0.23012359846657687,-0.021751809976273583,9.650906434107156
8.34064565246016,-0.23071076323900677,-0.015179132372278095,9.717322665720138
8.3368830229718,-0.2306944693105998,-0.03166332665412847,9.734006472354023
8.360651256808255,-0.22966172813736246,-0.03390964101903997,9.70024119951403
8.356759026037924,-0.2330135223771894,0.0046428987771630565,9.720868480921876
8.380655977837739,-0.2164772510286726,-0.008313641671183043,9.756202809747352
8.376636663703216,-0.22155933045849957,-0.012398822489419167,9.771008734283578
8.400666934941087,-0.2325378016754016,-0.004543599006569099,9.704135754068917
8.396511547623918,-0.20362994820016161,0.0008891062854642023,9.714091206916336
8.420676109659365,-0.21811263961534938,-0.01913169025190811,9.735791821346732
8.416386086824055,-0.22228525436430704,-0.018556776850917577,9.694941924422727
8.440691734472635,-0.2263976798926285,-0.01810153284669843,9.682488749416125
8.436261949372604,-0.22993160834478668,-0.0056809727616815575,9.728314450092013
8.460708139831862,-0.22824857191646875,-0.03027054845793849,9.738582476945059
8.456133971992832,-0.21324357953720632,-0.013425749651741441,9.68740155648005
8.480722285819155,-0.2271572066891812,-0.008223994153414975,9.711698251285664
8.475997963293882,-0.21889846574127023,-0.01916357730820766,9.784481293314506
8.500734703940825,-0.206692634860466,-0.017715681378845646,9.723952910825364
8.495861971348786,-0.2374136502492595,-0.01348775479668441,9.725032053762103
8.520752506761761,-0.2605488461223146,-0.02495780547096525,9.746778876203368
8.51572526154158,-0.19018097002915196,-0.03269488809000455,9.741792797412737
8.540772547030505,-0.19441592392084608,-0.03962960272903415,9.706819605990917
8.535588741433042,-0.22146355701561982,0.00019278535845714838,9.685688831702018
8.560796798708054,-0.2244427593220987,-0.015371043844781829,9.741915637864139
8.55544813143628,-0.20807345753375564,-0.019654562645976637,9.660618358170563
8.580819230694386,-0.20304471495561366,-0.028426093320830174,9.660197110981127
8.57530249786611,-0.23892216889448448,-0.0065000895413911955,9.740461150829468
8.600841099390571,-0.21475128197520937,-0.03170985425275695,9.754006820770721
8.595156546580018,-0.2353967488559853,-0.004997935412802338,9.70055835821362
8.620873368539431,-0.23718580728496663,0.014320679101405342,9.68562285806057
8.615013719416734,-0.23230751041343037,-0.013942394777025567,9.7813280742112
8.640905226327353,-0.2213056652929674,-0.00745065194886841,9.762512604107433
8.634861885815859,-0.2318582424489312,0.005463033612263247,9.698108454713411
8.660938571611704,-0.2418912658490221,-0.0035514144386083555,9.7390156610949
8.654710653424939,-0.22617922522847406,-0.01752638036583203,9.733386209277848
8.680973664378637,-0.19775185642551885,-0.012102320681528991,9.702267560075343
8.674554278470604,-0.22100699834375245,-0.026272283027684164,9.703670031511068
8.701011526575591,-0.21840458136986604,-0.04356880693779268,9.71854660053224
8.694395236252674,-0.1852925086870689,-0.04656808540964825,9.710353443716654
8.721052958779607,-0.22569486072566972,-0.00897838648409907,9.6550012565011
8.714233051796384,-0.24053431577394005,-0.023035250655198472,9.72722235869396
8.741096954597884,-0.2265704612833034,-0.02660979210216054,9.751027501180413
8.734068436137802,-0.22223376818096588,-0.013211739853307381,9.707360646922451
8.761144809044731,-0.25325483141652716,0.008731895717296196,9.691041383404395
8.753902775848841,-0.2313608091369692,-0.010774875092422738,9.753475232943886
8.781198340631112,-0.23471645187582788,-0.008812161511428902,9.741212792050682
8.773734381627039,-0.23434856662276385,0.018630017308438527,9.682997186864206
8.801254432060187,-0.2648536478747868,0.002152406458439721,9.734199938555392
8.79356041343449,-0.21811198182796357,-0.03113787930090219,9.738321108810208
8.821313910306364,-0.19636563166610013,-0.01747598612263983,9.68262008492052
8.813383061158051,-0.21167138033747485,0.0011914304410620712,9.695003455710015
8.841376644997103,-0.1950647495739512,-0.009986000268635487,9.738393897473458
8.833198917558498,-0.2228330857322204,-0.029586080184729902,9.729504670371476
8.861440041922014,-0.2152026389980332,-0.024559899540805223,9.657946882428496
8.853010591890955,-0.2074091758835999,-0.024552053203543433,9.695158501480282
8.881509513892894,-0.20931477385312366,-0.020407023104831033,9.761602497705129
8.87281785995248,-0.22137937583027661,-0.045574691597831334,9.710219401276362
8.90158191974274,-0.2425401948434542,-0.011208320641876473,9.697307870335031
8.892619755968996,-0.23251750510372904,-0.010376371134610799,9.746698979861018
8.921658436423309,-0.2326723334929215,-0.02218286318537988,9.755864769589998
8.912412768494423,-0.21607622214200073,-0.028130888693247907,9.718230722733539
8.94173954389713,-0.24994668780521428,-0.005336856791155569,9.697060610576667
8.932205438077773,-0.23832041731310288,-0.011922054382296212,9.751194448934774
8.961827922805009,-0.2269293869050744,-0.03763112608158229,9.695932058762645
8.951991079956551,-0.23386194300585508,-0.02808020815718007,9.683314142263056
8.981921145278584,-0.2382600978269844,-0.03087397324035526,9.716958016813862
8.971771579661148,-0.21444023940277607,-0.02964774688834268,9.736880960665468
9.002021000494393,-0.2170967427673562,-0.029843677688680112,9.700018377199866
8.991544296023978,-0.23741771974162057,-0.006278783853547132,9.680560582730502
9.02212650999716,-0.24819379939146796,-0.06393002301069113,9.768430914091315
9.011310712195552,-0.23187509047774318,-0.0506637039241856,9.752886561240844
9.042240870556515,-0.23170186368168488,-0.013915427577826585,9.6994706238623
9.031073363930956,-0.2221261766376865,-0.013961463872277527,9.739853450166445
9.062365151788654,-0.23043377240298116,-0.03353253002793838,9.739597256403986
9.050831646264697,-0.22549133942014213,-0.014958864638255163,9.731428346065277
9.082497279251177,-0.21571271387203547,-0.024312221167469353,9.680227250584057
9.07057900769256,-0.2027998070797769,-0.028351925530299898,9.743556798692918
9.102634625579539,-0.2315839111144834,-0.05373796491538202,9.714772820210106
9.090314540435479,-0.23290379600293368,-0.02472099132122732,9.675497780026069
9.122779023445611,-0.22845654611673846,-0.0018042215790183794,9.721011634230026
9.110041125378096,-0.2447027591958239,-0.008567026065900492,9.70560147530506
9.142934621187154,-0.22905666494327628,-0.02627609087589481,9.699124804196305
9.129759484038148,-0.22972542334335502,-0.015043370399202685,9.689675741360832
9.163099375496328,-0.2300749540286811,-0.011971510598559323,9.74623630634885
9.149465685230291,-0.24389682535353585,-0.022172047097507957,9.78323125218296
9.183275562020658,-0.22704317226648102,-0.016723985697603857,9.701738910172397
9.169160461928229,-0.24873731033522115,-0.02259541364380278,9.741926446678947
9.203460759470083,-0.2292844990928582,-0.02767383760962426,9.754356335089703
9.18884164725002,-0.18961758219793182,-0.04086233536212248,9.700768969976052
9.223662344782118,-0.2264714725010584,-0.01772472193984132,9.711249451637066
9.208511200029932,-0.2240706730908085,-0.026479681911780923,9.745867737069219
9.243872573510801,-0.21062137259610272,-0.05105496648660443,9.737504382365719
9.228165392984183,-0.21295734895103252,-0.021271475327108786,9.679791160206156
9.264100991592736,-0.22656097525976276,-0.023720654254938148,9.70823257797143
9.247803506121748,-0.2138398630429571,-0.04001201497843232,9.752548660457421
9.284344212368273,-0.2154370707429212,-0.05095537028465154,9.72887177833985
9.267428677128628,-0.24048189895813835,-0.01869895560331232,9.68068874247846
9.304609192820184,-0.2261567737893056,-4.1165964029756033e-07,9.716604317007087
9.287035925624227,-0.2110884082277895,-0.04645370227411126,9.743129920778225
9.324891385157047,-0.2156416818683218,-0.030739214065588587,9.692674899152967
9.306621324359524,-0.20760265313032392,0.009183044697298895,9.727753345584075
9.34519314207035,-0.20081198293595415,-0.011946891176387085,9.757250250659023
9.326183632833052,-0.20860374194134618,-0.02630889044796476,9.698831525284017
9.365516130901716,-0.20884129279284971,-0.007655140607232339,9.661471251930204
9.345722075163263,-0.23541975285203876,-0.013749520905716416,9.733441657711898
9.385863093027606,-0.24051544430768085,-0.038739162273774864,9.760326455272335
9.365233166213734,-0.21764384393590713,-0.04417813042955422,9.705387919431324
9.406239004857223,-0.22374670643446906,-0.025629961420861776,9.692780814706103
9.384716457907068,-0.21544903787564507,-0.030789316001160062,9.761536869963349
9.426645942375078,-0.19391775507478276,-0.01885566557511513,9.730302272466059
9.404169151128572,-0.2453267173563208,-0.01784593661710908,9.706637052560016
9.447086582647993,-0.2231465849788677,-0.001594667850699844,9.739025354521074
9.423585941084843,-0.2518138956090508,-0.0405345772235094,9.758966794630947
9.46756608592211,-0.2471792979113418,-0.061992219623984005,9.697945301925083
9.442964300655035,-0.22635091618730208,-0.04815074047015457,9.71888835404174
9.48808772727715,-0.2496400743297677,-0.03719486851940741,9.745573315561474
9.46229677975198,-0.20198141754626006,-0.03412355971246078,9.707036897957513
9.508656318576021,-0.1974418331802099,-0.017652779160396485,9.666903870170016
9.481581132641846,-0.22180288371934387,-0.007045719343034023,9.714607484381043
9.529280564319166,-0.1981366011793843,-0.028054731095328272,9.730008622824284
9.500812522733668,-0.21932958617432538,-0.020984128760760185,9.70142736598121
9.549965088554034,-0.25570384568939547,-0.0030920757707127897,9.652740710211946
9.519975819854581,-0.21448291325194815,-0.012264091735235875,9.766137844990116
9.570715880265194,-0.21628827815061405,-0.02837232616314044,9.79587383733265
9.539066297683084,-0.20463701935989456,-0.02203039893055549,9.720020867987282
9.59154640470824,-0.21470571319486226,0.01759998009721558,9.717180367796525
9.558071144417964,-0.21403982171096195,-0.0030064109598454264,9.740167686226322
9.612463297207166,-0.2097939934347378,-0.003374190390350945,9.744078651874718
9.576975344317386,-0.24061971194969128,-0.00864524279368919,9.703609241409584
9.633490301469488,-0.22427084628116264,-0.017329667511382298,9.72934280570483
9.595770782065662,-0.21028090068158528,-0.024972107558588395,9.73437004089949
9.654638484936832,-0.1882041203750293,-0.0047294760210366,9.677599905167682
9.614425797086163,-0.22083833297586342,-0.006170149340724263,9.693313717914657
9.675927794201149,-0.21521615444833914,-0.01752915998466156,9.743200675753998
9.63292225431886,-0.2167510920023797,-0.027518858420004098,9.731847206813997
9.69739289293309,-0.2426680196508961,-0.006303060208202759,9.675652170104401
9.651228034176075,-0.22016056889819288,0.020284543839293383,9.735554587273953
9.7190722140083,-0.23619933442349,-0.01908344487736638,9.775315793802811
9.669306574293177,-0.22717607808679427,-0.024282197562534,9.724551987950143
9.741010525177288,-0.2219071920825355,0.00016276965961345457,9.717957993718871
9.68710147778767,-0.22784302395359654,-0.012243790353495633,9.76282824118208
9.763268462008481,-0.2348208985859164,-0.020908774465083074,9.695878707267921
9.704540517271772,-0.23895929668208166,-0.019774273805493917,9.696430080881298
9.785925503401879,-0.2204328290068538,-0.008919574166269584,9.707460569498116
9.721522671842033,-0.2009757623553482,-0.015474542171591964,9.737836163687708
9.809095822133342,-0.20824183710275201,-0.02413381172028383,9.664299342766444
9.737912670615001,-0.22689192444764586,-0.02184972831538412,9.675789760088277
9.832943594524155,-0.23126675852902143,-0.007655172288793825,9.768395012915812
9.753517827803575,-0.2006039403927154,-0.03031087183001273,9.73539809586878
9.857710054517932,-0.2244738628509255,-0.03857243816583876,9.720973203177527
9.768046084196145,-0.25820157133661614,-0.006041064788364581,9.732680216899485
9.883754867921606,-0.20379451586884248,-0.026258330608776696,9.727787804530463
9.781030056297245,-0.20428725398538736,-0.013224403605788162,9.684977899582394
9.911670226215334,-0.195404760916913,-0.0021255247573068385,9.695076169083872
9.791709997826489,-0.2174059951786344,-0.04105046119412673,9.768714564022055
9.9424687620196,-0.24167651559254932,-0.046989638513021875,9.69932329483152
9.798709625001782,-0.24070475183343643,-0.00886562624139442,9.651101138004549
9.9780550608666,-0.22615112335974835,-0.00533011179700671,9.712716927216231
9.799310407741169,-0.21749024390440944,-0.06105358313293823,9.764675596790289
10.022485809217933,-0.20577292456649618,-0.03397914842244975,9.699702572842082
9.787231261928778,-0.22723889470748504,-0.014058284493320528,9.648710070678064
10.086088255938135,-0.23205093273970634,-0.015939184552244006,9.737575165182873
9.74411473613834,-0.23559454782250272,-0.036915424771935566,9.729123347687509
10.205102482526053,-0.23165143128914772,-0.01607682265930457,9.700962849955529
9.58581179011301,-0.24413311251827824,-0.0005260822336556088,9.72413811313883
10.640404896968962,-0.2449454196500029,-0.028537265825716376,9.770317003420036
