Time (s),Acceleration x (m/s^2),Acceleration y (m/s^2),Acceleration z (m/s^2)
9.24559966326384,-0.21936002104694952,-0.034341125235745104,9.728732233343635
9.153429225909127,-0.1883093624299153,-0.038484427120476256,9.741808776601884
9.260285091470873,-0.21210179837830823,-0.012559087004712291,9.708731218985223
9.178068531914468,-0.2216973097026695,0.0035429455690787984,9.716659229709862
9.27591423647231,-0.22375595137497492,-0.04285328188698943,9.748233195213016
9.201884063191146,-0.253371838231667,-0.0360215166541913,9.7603162468028
9.292261531232963,-0.2427942555018065,-0.03644538015680349,9.702445019234677
9.22507935939538,-0.2196538821514561,-0.0185213181423042,9.72117438661032
9.309156491202756,-0.21850557628802975,-0.043049349704316106,9.741004107134883
9.247787319087434,-0.19982802998484384,-0.028152599895650353,9.668720976378054
9.326483245923084,-0.2240186696438696,-0.015712730405698924,9.692128704074012
9.27011282754046,-0.22947639505491685,-0.01181181758604852,9.709416098215197
9.344156708262924,-0.21657169360117431,-0.029791465174934896,9.73723377962001
9.292128513788226,-0.21622675910378303,-0.016539051665114882,9.666226960039046
9.362112809189767,-0.2362108830525559,-0.01500125755933686,9.710963843805114
9.313889708793003,-0.21314995384881175,-0.0361554234263957,9.772219694337814
9.380299685218274,-0.20466749259340872,-0.03330292357292866,9.71555060296405
9.335442001224504,-0.2193621532666685,-0.035627987906373317,9.735364483794804
9.3986787362141,-0.21957962536889744,-0.03880127307801247,9.744907738844189
9.356816726688013,-0.19875899349019785,-0.03067542389380707,9.711640525338353
9.417221803964944,-0.218116490970049,-0.022606099144859202,9.68025817188326
9.378043794610198,-0.226493450613464,-0.015496019809527296,9.72479545657029
9.435899542735442,-0.20910169694342906,-0.03881063720380139,9.757561915850756
9.399137886415057,-0.22439119370114682,-0.03865862017260129,9.66664323807003
9.454695797524753,-0.2298115212723074,-0.04095738060488294,9.675448057583484
9.42012546638604,-0.2071357980495574,-0.0393824859853888,9.747864331852837
9.473595895214306,-0.19219072959265798,-0.06556338078162126,9.740587192317657
9.441019254938347,-0.20763250434224628,-0.025360826234403826,9.686970880766525
9.492585453148836,-0.23169774111048888,0.0035684552171786955,9.717565225480042
9.46183063665673,-0.22263709143580881,-0.03510713555353287,9.755597870101045
9.511654492543087,-0.1954521741280432,-0.034340319854899395,9.732268247034602
9.482572793687389,-0.2182956119342878,-0.021591909708662402,9.698039820601377
9.530796070880854,-0.2084456831837979,-0.015487623454426565,9.742841209469464
9.503250895434107,-0.09462750608375009,-0.026870647940055472,9.7130897725724
9.549995148751846,0.026347641642055008,-0.023960199551050453,9.681842363061534
9.5238699974118,0.043746646416931184,-0.031375977378776856,9.67056219550223
9.569246257294594,0.008988220500711812,-0.032605388912902024,9.679993410406576
9.54443725522182,-0.11773071546867223,-0.041202579109364736,9.70724131528233
9.588548204558855,-0.23792378628949196,-0.020958767089188132,9.657809775762567
9.564960427640411,-0.27390975181202876,-0.004580338054830401,9.748807713738259
9.60788813775623,-0.2398669363448004,-0.016459101246768405,9.795011943891996
9.585437303952485,-0.20934254107779263,-0.019708031368622696,9.717197065636231
9.627268072659088,-0.2694614199078448,-0.02331217745290123,9.71593383485402
9.60588092987952,-0.3228758357415052,-0.037225578737061726,9.739601137746341
9.646681030805986,-0.4155230887848703,-0.04088280874092839,9.721919909146536
9.626289206000525,-0.4493249488048746,-0.02921582083588247,9.67821606789908
9.666128468610822,-0.4959617305208679,-0.022014811964627796,9.731123027378063
9.646670276519458,-0.4407405579599672,-0.03951004828358212,9.740473213217447
9.68560529688107,-0.38609028377167215,-0.03753108850682772,9.669962912033494
9.66702217302083,-0.460074118192027,-0.006149845650279069,9.677382719627715
9.705106631643659,-0.5699370773343335,-0.01718922994413481,9.739912125051086
9.687348525124222,-0.5803346496937222,-0.02181443589293333,9.735884738490006
9.724631670115205,-0.561363119116336,-0.023149361894315056,9.66230832670847
9.707651368647454,-0.4759070310439859,-0.0005432247904888151,9.711976881115566
9.744178247650797,-0.3178261363135335,-0.02447338178240713,9.762075541016504
9.727932355627273,-0.2887867591079388,-0.02228177805799482,9.735476428602965
9.76374538357904,-0.33806162885387264,-0.012508235303967974,9.695232759283357
9.748196181630684,-0.3677307577366537,-0.029075879390909158,9.710739433408811
9.783331355753651,-0.41704110264343397,-0.012564550115997669,9.753305345572972
9.76843664996933,-0.3400133813941912,-0.011470965156637586,9.716059058489042
9.80292945449191,-0.2585207734852453,-0.028579635594865527,9.714578926311033
9.788661125464747,-0.20345145183219232,-0.026268255447191264,9.744749402427512
9.822546452255326,-0.12789108090836826,-0.039647225351736634,9.651175674024064
9.808874214434216,-0.13025421128786363,-0.010470248723875326,9.65936575230751
9.842183930087486,-0.11701705989447483,-0.026230617093509677,9.725497369869956
9.82907486173325,-0.04936085285601836,-0.03498204654750016,9.72476171799442
9.861834604960533,0.011368139200392416,-0.02818120066847802,9.686690866469254
9.849264845175957,0.08343516953587944,-0.0035790922812929706,9.697397112827854
9.881497775484034,0.11337914569576726,-0.040566477370398986,9.79410009051661
9.869439225838244,0.15487281317684629,-0.03893419577894456,9.75817926723205
9.901171559892692,0.19330638742283524,-0.027771868750512012,9.703716110822622
9.889602526976368,0.28136854621107465,-0.028942492071855265,9.704182140831874
9.920858771954888,0.29463139673639915,-0.048868576423285126,9.705377913466096
9.909755116060937,0.3690586116267302,-0.02300012298861597,9.695145033380605
9.940551184282945,0.2911566443474078,0.0047637793244100606,9.669736925676379
9.929895257601052,0.33388506309862875,-0.04492911809790242,9.73477375719534
9.960254758960957,0.23032926809638318,-0.04503798832448956,9.692713215299085
9.950025186814624,0.0976319994744941,-0.0189680400360384,9.645393313489986
9.979966199021725,-0.03661092147830551,-0.023330938214023024,9.741490786155019
9.970146894324925,-0.056220925577099574,-0.02413032923896358,9.755550064441518
9.99968668973586,-0.023739697529208976,-0.033068125625996286,9.700139052768765
9.990261163782746,-0.030526840832742506,-0.027047353884970576,9.693208037910997
10.019417109912018,-0.053022568700808945,-0.036715113861405954,9.75785435069466
10.01036744287726,-0.11570122288319623,-0.031131241438347824,9.733426672125226
10.039150006742537,-0.21405805659735605,-0.024773604411341205,9.66114537239066
10.030461362353206,-0.30925447566125674,-0.022334395534705443,9.706714662864371
10.058892288238946,-0.40605026807304,-0.024199870243905026,9.746463996473492
10.050556407698396,-0.49012611046978233,-0.017216733219075787,9.68102589111907
10.078646827058906,-0.5385423213381332,-0.023594446940538454,9.70770589531107
10.07064548386201,-0.5964258340046381,-0.026224664881496926,9.728053598816237
10.098406540941186,-0.6512610366433094,-0.04172137954190327,9.73873092655512
10.09072806079903,-0.7470081772910524,-0.02303879877745174,9.712202848525994
10.118172689942007,-0.7895151178873699,-0.009538171686743471,9.736115566992785
10.110803953317511,-0.902955191129071,-0.024127683652265922,9.78687463011972
10.137942336675627,-1.0842464471251134,-0.03302556273794023,9.740549505333918
10.130872614824785,-1.0391750730812188,-0.005710778452640492,9.6825656950305
10.157717060038918,-0.9299103602750317,-0.008983643623467142,9.718807254764185
10.150936740982655,-0.8084245355555182,-0.03166383336813037,9.752580047048303
10.177495924846752,-0.7625182067247452,-0.013879949776544512,9.69733489252028
10.170994865306284,-0.7543610417357844,0.006984440943001698,9.67142877539462
10.197283556925862,-0.75949099937682,-0.0013232503029142074,9.734373106714013
10.191050353530327,-0.8121649286753381,-0.02578982638193765,9.69669219725752
10.217070626721727,-0.8034964756124158,-0.020368212323001445,9.66341329803909
10.211097989645713,-0.7366443278156491,-0.020415502633315485,9.758854530482528
10.236864674277914,-0.652933293103823,-0.03808490315335907,9.741572684799147
10.231145388444942,-0.6216607696844643,-0.02729000566825406,9.678595945577703
10.256663160276734,-0.5926133566962334,-0.024451171933189617,9.70802367707666
10.251181235172998,-0.4344741983871131,-0.023038842082552698,9.753416977472943
10.276458468561126,-0.35921569904079553,-0.04001132097784384,9.702267598010252
10.271215394517535,-0.24347723633683585,-0.009818715527430492,9.722061414679047
10.29626171373632,-0.09518933742773783,-0.04194780370138621,9.746799270845948
10.291249177109668,0.037371133418518096,-0.02981571682478599,9.734571836587678
10.316074166417826,0.1114678515145802,-0.03375873930306552,9.704417250471803
10.31128083675217,0.1902364959095604,-0.0159713761934951,9.686146768571488
10.335890048610855,0.3447730567991395,-0.04342107654877098,9.73615976627754
10.331310542247216,0.42429321776322027,-0.06468311548248276,9.67946570567121
10.3557051611871,0.48476060735287074,-0.030110406101034166,9.650825874442795
10.351333537919142,0.5312457761385254,-0.03015249281157389,9.724979395579835
10.37552543727263,0.6270109948222082,-0.043634448940200084,9.728228574740282
10.371356345593274,0.6221809297783354,-0.04000058707527421,9.694395124343474
10.395347383616148,0.735381362383465,-0.03950702924730999,9.685069467764182
10.391369180075941,0.8077440295999531,-0.027126337184122037,9.749393994786967
10.415170674298917,0.9519834656839472,-0.036340066199381696,9.758045600030052
10.411384389156902,0.861056045475836,-0.027562000290459965,9.70308542948964
10.43499760261505,0.6092244654917446,-0.02384611810189324,9.732835763174608
10.43139449661238,0.46797757456135713,-0.02496050431581958,9.72194290068926
10.45482361498629,0.3561153158573429,-0.03408470304706926,9.66011525206506
10.45140168143537,0.3847349760875867,-0.01395674712265017,9.67644574728662
10.474656972936016,0.36530716185717876,-0.027401582287631707,9.724094999078655
10.471409054766127,0.31001283464944435,-0.03225157206308417,9.734802229892146
10.494493397460849,0.14527538137459942,-0.031056061631313147,9.684643566376995
10.491416630540035,0.02845367573630055,-0.0146949444437423,9.721965279954434
10.514340436917056,-0.14483998135943696,-0.05510933004153833,9.753989874421814
10.511430849349072,-0.20825398144824228,-0.027356981393540186,9.721801055263853
10.534186775742539,-0.39982411511199206,-0.018205220851652704,9.719863736310492
10.53143260010248,-0.5790267521951722,-0.01213424899369301,9.744746105545822
10.554029929417217,-0.7401317070037982,-0.035454856599941104,9.753998346160744
10.551431568290695,-0.812381379601435,-0.04183693280483334,9.689436122062808
10.57387375972703,-0.9526393496156468,-0.028065363140300965,9.691913755493264
10.571425513999031,-0.9959229082276733,-0.021164255245730797,9.74579616006789
10.593719737851215,-1.113839886266809,-0.015986361519708007,9.668075167171066
10.591421180582671,-1.215400784021575,-0.007231932785767646,9.663927875803692
10.613571930113526,-1.2615983767216774,-0.010605931010015054,9.716144568199166
10.611418786213747,-1.3612912512940332,-0.015538450000820981,9.724904551286382
10.633423764972335,-1.5191989080396104,-0.028530712899730748,9.740632283035078
10.631409317653716,-1.4568911706831909,-0.008603221905207327,9.736835705371748
10.65327682036154,-1.069176893045519,-0.00810436321697292,9.77910139162461
10.651396090796199,-0.8765312512248935,-0.0388118406000509,9.759103728861277
10.673125922954924,-0.9402363618925547,-0.03612682181010267,9.672015860559153
10.671381775440533,-1.0369598199991907,-0.009666422998720963,9.742179399466837
10.692981579445226,-0.9709646096663965,-0.026870485112824426,9.728080441091839
10.691368489316792,-0.9497416238587507,-0.02769600082936095,9.687372796591973
10.712839743222645,-0.8519656835409641,-0.002473329950053162,9.657419614397025
10.711349565114286,-0.7749085796654478,-0.04032777909374001,9.74171938913263
10.732693418238673,-0.6276570077654714,-0.06897529160862415,9.71321200238066
10.731329616225299,-0.5280177097220069,-0.029133817550982766,9.639870526137381
10.75255337056272,-0.4613580160268675,-0.01712766214880502,9.750815354493628
10.751307435853555,-0.3299947310512866,-0.044474594800524216,9.79385586258676
10.772410464432483,-0.16860789212453453,-0.03499710954955064,9.723433393233483
10.771286477578624,-0.07593648160831591,-0.030109832547755493,9.735411544220437
10.792275125720005,0.05957221676958601,-0.03742744431726367,9.749201636771696
10.791267799469487,0.2315446254514694,-0.043129322683283386,9.742364843871883
10.812143474509044,0.29502730964878265,-0.03217621324256129,9.666139996134131
10.811246586539358,0.4710608860159874,-0.014616863814477896,9.729629276148009
10.832009655786614,0.5194564044812708,-0.03471432067576435,9.736823524899346
10.831222906331584,0.5598928009160988,-0.026167296204470746,9.698351304978274
10.851876220697557,0.6755867149150767,-0.030494963294231472,9.684906719721178
10.851197238407174,0.7853273198124346,-0.03764389615988564,9.72398157627027
10.871745740943304,0.754896210594967,-0.05853197850371047,9.722863319345915
10.871172922032802,0.85663555673985,-0.03407770838783734,9.68175812914641
10.891617232493768,0.844237066513516,-0.029995957171909546,9.705393088853693
10.891147938307046,0.9432321367140742,-0.053145258440748404,9.729739876206233
10.911492505969202,0.9964788149835738,-0.03969328796338245,9.702057520218272
10.911125000435979,0.8124327502801093,-0.017116317320590994,9.65847786097171
10.93136701807772,0.567393759280486,-0.03653343783246937,9.714035350696909
10.931092068376046,0.43674389614737597,-0.022342476633594715,9.745788860038424
10.951235946683298,0.38965957683535996,-0.03490828279811099,9.704398853094505
10.951059316234705,0.3167531918780397,-0.029195824170150982,9.69902982541708
10.971106693196667,0.28238589907559436,-0.05015694414292519,9.726706780688112
10.971023964476354,0.1844688028430163,-0.05606470772636477,9.677152734467615
10.99098162034709,0.08198517409893286,-0.026298196890307615,9.675317386378453
10.990992360676488,-0.022217040974970334,-0.007053741714512279,9.725821827659425
11.010859614461234,-0.11245825506451061,-0.016867211502248954,9.724561483414707
11.010965011064796,-0.2981467156406409,-0.017882425393146745,9.699600022453257
11.030744013801769,-0.3572076619054865,-0.00021419468634144254,9.697012844368489
11.030937196724643,-0.5689936546118405,-0.03166796473739286,9.756098427960827
11.050629121301467,-0.7130828156766013,-0.03176715154947928,9.73565401407075
11.05090638422572,-0.8452960203599199,-0.011570051900191874,9.741845625885516
11.070513727378952,-0.8922097937092075,0.0030130012612353397,9.730056073424985
11.070876821601704,-0.9494393427073383,-0.015927898130527602,9.721792895373609
11.090397112230445,-1.0607945688535279,-0.016002152836677892,9.690482465813497
11.090842472998691,-1.1829920520754256,-0.012469301674197948,9.674974297807882
11.110281842895784,-1.3088208251961828,-0.013903883355531726,9.726753287658271
11.110809608326718,-1.2695510430969157,-0.021979334813195375,9.713421280113943
11.130165900810153,-1.4415521167976175,-0.003937358905837259,9.667039822092171
11.130770885971954,-1.5758024076777126,-0.006342422240493616,9.72897310334762
11.150050010235624,-1.361000539351042,0.0029245006227394156,9.761429459264878
11.150734012320346,-0.9652990062860661,-0.02897462030809863,9.710749920249748
11.169934773410223,-0.9236714974853311,-0.020174041975252115,9.66406583190076
11.17069462705732,-1.0235033942969445,-0.017932798314286513,9.764271906653574
11.189821725112736,-1.0484692929422863,-0.03672930135549629,9.795598643956625
11.190658859791181,-0.9273664837695839,-0.03166384009964466,9.695648743800346
11.209712085078907,-0.8971021051448671,-0.005401739769641621,9.741481931139976
11.210620000475936,-0.7878887025009218,-0.023270346298255,9.70605842038373
11.229599178352979,-0.6812954326091134,-0.03363269298184403,9.648515253291006
11.23058331589599,-0.5484297288248395,0.0003737030770383723,9.671200222667265
11.24949197128354,-0.477344345982487,-0.012164409651978554,9.704868535031824
11.25054479371444,-0.35190793185823166,-0.032666063097382424,9.745303019733818
11.26938364582678,-0.1917201289455558,-0.023055200012632317,9.685653645338126
11.270507060718549,-0.11489527819452465,-0.030592445569617405,9.731503663380074
11.28927778522693,0.019005507809270794,-0.044420520762699714,9.74050837221491
11.290470004534658,0.17473147968499173,-0.03400265097662523,9.72435989544822
11.309173020482627,0.30917660217413434,-0.0415120897137819,9.69438785024349
11.310432576129637,0.38194780888578495,-0.035991691877078236,9.721092520386865
11.329067553711024,0.5168867022309578,-0.056766251683399216,9.723734363163972
11.330391836264484,0.5790724823808469,-0.04223349807749887,9.718291001724477
11.348962249862694,0.7035235765308562,-0.03699145503676219,9.688949067222834
11.350350661183526,0.6828241383296512,-0.043059651449745884,9.738277768742579
11.368857931477176,0.774870854741648,-0.03424669321684769,9.70753004978548
11.370309206438847,0.8226820211005718,-0.02932367118086741,9.682482047224992
11.388751551007179,0.898371664669134,-0.032447865380782176,9.715241502764309
11.39026242529605,0.9179296406221689,-0.04141430229186688,9.714621519481689
11.408642418781554,1.0286422844003775,-0.03897130342957432,9.702890478361157
11.410215883869544,0.9269300085066572,-0.02674923924468297,9.689045470363368
11.428536173532528,0.5458944630251259,-0.04401280369608468,9.752020981448378
11.430168847500651,0.4490967607336414,-0.051232671276414316,9.728770359202377
11.448429756492219,0.39741482525884375,-0.02187987526122715,9.703630900258503
11.450121261160598,0.39551246767474385,-0.03126452455308733,9.736020925040286
11.468322106458729,0.3238001243815184,-0.032964499068494434,9.708605081599734
11.470071882870565,0.2404071553221891,-0.01266472432801262,9.714316574364984
11.488219598943585,0.054361387230865976,-0.007875943680236041,9.702851165349779
11.490028582693617,-0.05794817237647297,-0.03800753874039277,9.730063081486302
11.508118430362368,-0.0928179893547149,-0.054342677742250566,9.713341022043696
11.509981664531042,-0.21456141135154988,-0.04059864218826422,9.67960092680491
11.528014725519174,-0.3629939588792458,-0.016771836040139893,9.733738960984365
11.52992948087448,-0.5038557463786392,-0.011603068132912241,9.747892216976066
11.547907508549278,-0.6817911837765507,-0.0316962545487655,9.720681000893729
11.549875850777894,-0.8456377341800962,-0.02895266061408463,9.684964916057421
11.567799333841679,-0.8556881117500543,-0.014121620559998209,9.748715122875796
11.56982193640007,-0.9559933387736607,-0.007711822214746359,9.775154931279056
11.587695335853727,-1.0388000973456033,-0.030565651631355183,9.709929139337616
11.58977041811861,-1.163118859603611,-0.036915205310074264,9.698202578024246
11.607592240530012,-1.2230085277464424,-0.013625993020170934,9.71733637641273
11.609717770024671,-1.3397312807960124,-0.005429760421038921,9.72376136428736
11.627489701206207,-1.4377223639505294,-0.0026090484263728278,9.674179587044375
11.62966710453969,-1.5482427357628366,-0.03135733107040628,9.700453383193349
11.64739045715494,-1.2986644589389156,-0.029679381412648267,9.731464860343504
11.64961822233615,-1.028838064837186,-0.032577911436144635,9.640272140173478
11.667290899894741,-0.9695748756480368,-0.03664365515581759,9.711098505773096
11.669564737254536,-1.0023225764322359,-0.03017480224570188,9.805363764234714
11.687188932431784,-1.0073770142632097,-0.03495028721085055,9.736412091817252
11.689510707405754,-1.013138551060264,-0.013713627317239359,9.691552911607522
11.707088452955588,-0.9205933866373304,-0.02341043076801131,9.729675237523
11.70946110420064,-0.8282706313354734,-0.02862915786401351,9.78302933262879
11.726993575237438,-0.705465270863337,-0.028736344033857962,9.716614523360404
11.7294084491793,-0.5884906916163564,-0.01359613423675539,9.691226364746592
11.746891429432297,-0.5070666552844523,-0.014360719546119043,9.73817413360086
11.749352560128944,-0.3288076301160185,-0.03670932544178274,9.668242485804479
11.766793139929073,-0.2268782095703778,-0.01741142776204127,9.65935050395179
11.769301844174894,-0.12466288730451543,-0.011194059639468491,9.71610364980531
11.786698227558277,-0.021781883566039877,-0.032901631024524924,9.736089943165128
11.789247541306652,0.15645440094918855,-0.01513855027460463,9.726850974401346
11.806602076682768,0.2248100743771439,-0.03451731019917878,9.686317585089531
11.809197921457873,0.3662325710960925,-0.03701669745979593,9.746874040455106
11.826508913231574,0.5191139896840334,-0.010327829139163578,9.735488789131248
11.82914648009301,0.5646825446154491,-0.037975509621834644,9.683719203785328
11.846412580657729,0.6546273775959753,-0.04521561295764462,9.730878569789992
11.849089900797132,0.7146487368973562,-0.05859967784470271,9.695588360682828
11.86631614483905,0.7681183773354542,-0.03726319809530796,9.67883505377234
11.86903556668932,0.7549471734399141,-0.01018829507816176,9.676095020914527
11.886220018650379,0.8541778864645221,-0.023088957910137854,9.713862162883249
11.888978160357532,0.912588165800579,-0.04456888611359128,9.695956729700441
11.9061204897122,1.0239979242622845,-0.03489484489668817,9.696337775364286
11.908919601483735,0.8748080018555665,-0.03111372048147043,9.712289274240058
11.926022387579858,0.6412917039865488,-0.040193334210125345,9.751707148912685
11.928860124960766,0.45871502852361895,-0.044302206455514095,9.711419489611563
11.94592740880998,0.42031082879366377,-0.02952642751090881,9.721139644242992
11.948802647024456,0.3955706311859139,-0.0220043818080421,9.751197423280416
11.965828675917619,0.41576663609697057,-0.027620989807739506,9.706390794800877
11.968743858083014,0.24792642539612997,-0.017100342595998155,9.712021839075849
11.985734826370784,0.15889110461412037,-0.02453425116402325,9.727277557907165
11.988688175237705,-0.007424337001996589,-0.025993245729186928,9.76319115070795
12.005640992294078,-0.1533137739307537,-0.02719677826276376,9.715129280748958
12.008630947029806,-0.2534162495135253,-0.012656637604754857,9.69248776144486
12.025545075077938,-0.35276242998108903,-0.011755363703527776,9.724287589509737
12.02857017119646,-0.45740618811215467,-0.02385709254277443,9.720420845704284
12.04545025577824,-0.6878815808928255,-0.03207879400889301,9.719793538018838
12.048510219849689,-0.7577780647751146,-0.0200152539203945,9.727099700093563
12.06535313773103,-0.8279649860733514,-0.020117092064263462,9.757395662525436
12.068448821027436,-0.9244643302996125,-0.02079189647546448,9.72460039790601
12.085257103331548,-1.0745868627536146,-0.015100168454739644,9.712033389091319
12.088386707378575,-1.1430184483308703,-0.022749872325753127,9.715746370967864
12.10516199679846,-1.3110903218841814,-0.027337076817985865,9.776650699704247
12.108327769794064,-1.2972280289103868,-0.030098799544785174,9.724087259559838
12.125069459420947,-1.3973925837788566,-0.01902170230122549,9.705114932979251
12.128269726743657,-1.5257570452249218,-0.03342021524391986,9.72584255257691
12.144976831445716,-1.3262911099409702,-0.015528528142314677,9.710774106878107
12.148206456449465,-1.1032548538957982,-0.022474402198016368,9.683976441813854
12.164881422085623,-0.9428799427783792,-0.04595386817968103,9.684742304072735
12.16814427514594,-0.9656099082188436,-0.04138233923471807,9.72181851412075
12.184785592145452,-1.0326637776723637,-0.014319441974248122,9.675934844846237
12.188080696654989,-1.002885043689332,-0.0272307735783732,9.695014994229073
12.204692178962825,-0.9210352873080843,-0.03231698623730163,9.774775228150746
12.208020904464629,-0.8517630229693433,-0.03744310737536926,9.735391509076372
12.224599473337772,-0.7018568648406351,-0.024177739908463527,9.710976171444598
12.227957617820842,-0.635124826279938,-0.020900892532511463,9.716631872511513
12.244505010748782,-0.5014376378207724,-0.009995021742900395,9.719423638003725
12.247895482706069,-0.44035733049742576,-0.03760430465136863,9.699625074712596
12.264414089418574,-0.24888938600202704,-0.011202277460424289,9.675698701309143
12.267833419837478,-0.09703558728816834,-0.03603472739820265,9.712883045939334
12.28432031290578,-0.012821683889512816,-0.03864499339350895,9.690530547672825
12.287769137291809,0.09824189524514648,-0.02120461931253995,9.669572721657987
12.304231584068313,0.22159591635220682,-0.02027890099287848,9.706610319142982
12.307713111937518,0.3244280951153206,-0.045991325178634246,9.725260727796892
12.324143375981897,0.47506032382945856,-0.03026494987552256,9.736206193307911
12.327653581501965,0.5818165311430687,-0.03429708186438209,9.700677040554433
12.344055006852427,0.6814520975880639,-0.04702105051633843,9.740838865788398
12.347591232041601,0.7552416375503914,-0.03522492991338526,9.750763874097153
12.363964012606624,0.7135107560168582,-0.013952784718636792,9.715372885834224
12.367529719367887,0.7793726354617382,-0.0262946091142187,9.711652924370702
12.38387476927217,0.8502243986737763,-0.048304900532666825,9.7288017854203
12.387466086324245,0.9068856493335437,-0.021172271942098808,9.728984369534441
12.403784554516516,0.9661043992028017,-0.02445701203300007,9.704482293070345
12.407405534905942,0.9854042460891864,-0.015735444629182003,9.712038473558566
12.4236967733576,0.6666332155901261,-0.03569341915138307,9.725835773370552
12.427343319866788,0.43338193738781405,-0.038027466651518176,9.644531463101513
12.44361026729623,0.41784836592091146,-0.018008607913037714,9.726867463013685
12.447281780313602,0.39981370288405305,-0.0474265683161045,9.765398373004338
12.463519516703375,0.35980986733234493,-0.02882898355596317,9.727573961932016
12.467216872474102,0.3182046241294897,-0.03086625078125221,9.698291326231
12.483428713647289,0.239677762401875,-0.03236199289616711,9.727473252054516
12.48715142189146,0.06038293152324633,-0.013495873235847927,9.74262810426152
12.503338880973018,-0.0655902007167554,-0.02771906808217605,9.707134922139248
12.507090069930406,-0.2305462434758538,-0.032941204638580454,9.697167711013334
12.523253580991652,-0.3621697127867082,-0.043609653590745534,9.735461534352915
12.52702786255,-0.4967715060382164,-0.028562462671745618,9.698099989054015
12.543166402227847,-0.6514971861456204,-0.021567157794178022,9.695537313673073
12.54696749207312,-0.7790640992989046,-0.03292027408289665,9.707090571032193
12.563081158692077,-0.8093794750306156,-0.022058280663234897,9.735149589937537
12.566905872335845,-0.9339854220323195,-0.030546731324399605,9.692065977013135
12.582997189010674,-1.0652074805807656,-0.03738613942558377,9.69742274971643
12.586845013455457,-1.1106543247163936,-0.017624824991039574,9.720463291922625
12.602912496364752,-1.230727011819499,-0.0385032231660684,9.701703655322076
12.606782738988752,-1.2778003789274994,-0.04258684545052309,9.702253450942525
12.622822586840762,-1.3526817887364548,-0.02318105780922835,9.69344313200263
12.626715018784074,-1.5563771801206734,-0.022193055695653843,9.814125856036615
12.642732701973516,-1.5066771553052267,-0.020672161555067615,9.757968146750956
12.646649399859053,-1.0788470589172798,-0.018379188659201455,9.706473977863173
12.66264584124157,-0.9495223708026437,-0.014555864748848023,9.725531657138966
12.66658673455542,-0.9574465067719207,-0.023193396340246142,9.676712135808664
12.68256354028755,-1.00104567709674,-0.015343064899084678,9.678402207274178
12.68652631894728,-1.0164492029466539,-0.020253683030540624,9.672590624617872
12.702482452169333,-0.9764443696323825,-0.03711854711196203,9.724374356516195
12.706470169876381,-0.8165382697818907,-0.029501761937232793,9.702024245824395
12.722403173562869,-0.7448302789663713,-0.02734980615287138,9.669060276103313
12.726408872268333,-0.6576052555872842,-0.013907647628254454,9.75965963604291
12.742319441126696,-0.6848172009033284,-0.012711251257610356,9.77429730439709
12.746345838307697,-0.4822813646475538,-0.027063514683105833,9.710285650201628
12.762236036193773,-0.25475983739867336,-0.015999281559007327,9.71630407124193
12.766283894094677,-0.09326704347207647,-0.026622674337925083,9.74404414825038
12.782153089038912,0.05942248415555374,-0.03155007173105312,9.73953433819526
12.786220225001971,0.1656535414785796,0.0027056143998063506,9.688049223164121
12.802066996786198,0.2875206199026761,-0.0074822245137812805,9.712060624222074
12.806154544631264,0.36888845278016025,-0.03787394296684099,9.727675891960322
12.821980043752356,0.5558771377733881,-0.04677260533481371,9.69468945775645
12.82608569601275,0.5754788801045401,-0.03923463855951933,9.694211671186366
12.841890653385692,0.6874712916962042,-0.02578842418936816,9.746379524980892
12.846016240865275,0.685471835006907,-0.04479744989546358,9.719520015412495
12.861804339343685,0.7605680358722228,-0.027139192284169236,9.729171256051336
12.865951984800226,0.7848097673174729,-0.030006713405141626,9.712462893455296
12.881720712589415,0.8829006927883754,-0.03788907465914922,9.741317818197334
12.885886689652962,0.887389131532129,-0.03544076185546243,9.716333764515264
12.90163760518159,1.0358419006283446,-0.022794417553918117,9.716299358814489
12.905825060650974,0.984098949722861,-0.03996524206506495,9.71983313064753
12.921557731176573,0.6668935167224121,-0.044641108975797206,9.70421034847484
12.925759932836495,0.4846529425587623,-0.035582106012971085,9.683458741169567
12.941471187144739,0.4056367577488897,-0.02079279814398012,9.725407274027713
12.945689607339213,0.40752422107405833,-0.04060691949072555,9.727369691091154
12.961383851423719,0.33121774457883796,-0.028398326392341113,9.676434848538763
12.965622572008945,0.2597095537352311,-0.015723451029589417,9.6831595233051
12.981298478157088,0.17957499563510543,-0.013435220657935672,9.758556081444178
12.985555570984824,0.021535680857803635,-0.02659260767238806,9.730345262565102
13.001215530190542,-0.09812816464416883,-0.031561865252833304,9.682742962809105
13.005489072016589,-0.17100114619031592,-0.01698488484348178,9.681350805310291
13.021127569774952,-0.3283310767986819,-0.03737749559731894,9.765063057557414
13.025417424841345,-0.45375424774111844,-0.04030324777550523,9.725047161742818
13.041041494714706,-0.6519740778073895,-0.03212545671970787,9.710556239975721
13.045347410260165,-0.7540113298192882,-0.022831020596038108,9.717921219288236
13.060952991310248,-0.837649012931797,-0.03106490828249591,9.752563741076509
13.065274771597965,-0.892951181124402,0.011847172787872517,9.714944747717025
13.080866256092762,-1.0470579767912542,-0.004620652618314615,9.703963200626955
13.08520773487242,-1.1462766083637048,-0.012978905271223373,9.733883720800357
13.10078444857255,-1.246631864819545,-0.02571361372599699,9.707877352961127
13.10514110418787,-1.3024000976018695,-0.019865220569120802,9.694414808679651
13.120699422072256,-1.3547614753442885,-0.03073883192610452,9.728491271386163
13.125073392227772,-1.578329795629588,-0.025190097992713142,9.70923362357184
13.140617357238654,-1.3776076231955312,-0.022778203042041423,9.7351205222374
13.145006614147198,-1.1556769778600424,-0.016168740148359208,9.715398686237247
13.160535577108988,-1.0182489723128894,-0.014947172144246075,9.753031437998668
13.164940248374357,-0.9792659869269259,-0.03792963170226516,9.774774635182387
13.1804534729537,-1.0086748926359514,-0.026009683597781025,9.682551455808081
13.184872447474707,-1.0671955427587791,-0.014844868887569739,9.711295962996
13.200369202225772,-0.9237375114348867,-0.033800144697514294,9.725340751896958
13.204807597967125,-0.8459743311113193,-0.025154864386295432,9.66706587379209
13.220290527446538,-0.7687092191757616,-0.040391329766482215,9.680690578488008
13.224738128845587,-0.6712913133226329,-0.04006447321508707,9.73305085297837
13.240203522598927,-0.547856255091345,-0.019684906363695246,9.732804080593226
13.244665186443992,-0.4455081124998285,-0.028251586674572653,9.66755790448749
13.260113817379308,-0.27429880332176976,-0.02438099803823959,9.720061955945413
13.264588991495069,-0.16704761810727897,-0.013541065651147202,9.762316451740864
13.28002629436317,-0.06249203838234747,-0.03848827074807665,9.725744339506088
13.284518617728615,0.11301724895139914,-0.015986646242443864,9.762547903179884
13.299944463381618,0.22227385077672338,-0.014264060071785196,9.715587042242555
13.304451933580085,0.42749156373706265,-0.05581047287610802,9.713260544332499
13.31986404750347,0.5184520913441404,-0.01009121873949913,9.693254980563674
13.32438599072474,0.55514692655872,-0.016020789440170824,9.667164986387325
13.339785418874548,0.6291073280018786,-0.02749364023056835,9.724180856738357
13.344319785314532,0.6987878217817306,-0.0568053850460555,9.667271239807295
13.359705622757824,0.7338046566791835,-0.04749560225937819,9.691435865278768
13.364253449412322,0.7794386533092481,-0.026521158412253255,9.728891751897171
13.379627589275108,0.8357685273224436,-0.04185351366692882,9.725780343418121
13.384189536997258,0.8789472291235034,-0.02968442617269981,9.72876168820654
13.39954712575849,0.9393111179500366,-0.01647753775761027,9.701787130699152
13.404118945807129,1.0280780618978747,-0.030618317353161954,9.763122346071018
13.419464163395702,0.8422168859972582,-0.02890755249362071,9.73127406886738
13.424048076480794,0.4720145886156605,-0.03750890849811148,9.700147857181847
13.439380131489289,0.4226882338645431,-0.01136880076356456,9.715509162836602
13.443977202691917,0.3845721566937383,-0.02850045882583496,9.733842789047598
13.459298579710582,0.3519599389337982,-0.03479174295699311,9.713106238193733
13.463909364844671,0.28439263740771553,-0.021234653281607483,9.68229260285965
13.47921932575842,0.19815338746301148,-0.021286916926058056,9.754045335710412
13.483841177718446,0.0959505886093549,-0.04417890430997401,9.695426627075898
13.499138311385337,-0.018810247296977865,-0.04418351244272712,9.67563359740015
13.503772159622159,-0.20086049603289255,-0.015184577206085181,9.706331500230856
13.51905629143346,-0.32363587665997356,-0.033330953625044145,9.739923191574938
13.523701008674621,-0.43339142570416295,-0.04442987490689518,9.686289204870238
13.538974410900279,-0.609439751816996,-0.036127806411053794,9.67469330982757
13.543632478015235,-0.7768598140861631,-0.04748754627599349,9.730058868344312
13.558895486064118,-0.8502312846490109,-0.024598853093640165,9.722937768307748
13.563561210671764,-0.9035828051306353,-0.031183812884714914,9.722300998432392
13.5788116432591,-1.0400347500217264,-0.019182093210495646,9.708941946837673
13.583491062146686,-1.1298592672575813,-0.021043955467103123,9.753619855350212
13.598732750525707,-1.2537067791376477,-0.04263829119753665,9.76593318378347
13.603424221521557,-1.2802026075843136,-0.03635396031051568,9.706447275277933
13.618654984705591,-1.3721423616665736,-0.020184525762614952,9.714873478909045
13.623356121414494,-1.489761797436558,-0.024041857997640383,9.72357471603085
13.638574573603337,-1.4382002576516502,-0.036247767657917714,9.677994847119725
13.643284070621222,-1.1818672033019222,-0.019182917775596706,9.69988367646395
13.658491532909256,-0.9376088679289162,-0.013620563986539477,9.721717438060988
13.663212154367555,-0.93618937753507,-0.04151426377548418,9.722486820554312
13.678411463069335,-1.0008605361666905,-0.020220679084981527,9.669382602279054
13.683144229285507,-0.9888971688025534,-0.032057941726205776,9.736663921773065
13.698333549749545,-0.9148323841375786,-0.030287874214242526,9.808900819481288
13.703077373978308,-0.8530596037583452,-0.01989630918480153,9.717747750475775
13.718254896469542,-0.7639797940615909,-0.03375767120939681,9.715295123257613
13.72300318115542,-0.6648277013864214,-0.03431955512477817,9.760642099427036
13.738171280817696,-0.5244110194813986,-0.020871208222269007,9.712640873738353
13.742932334682303,-0.4779443723005083,-0.032536418322943426,9.684140988764327
13.758091705778964,-0.273280681903651,-0.03348490136814264,9.708831976274784
13.76286238347538,-0.18365556873010896,-0.031719242423782316,9.758905645608992
13.778014099569534,-0.05129134243115013,-0.05076298836986497,9.686817694810072
13.782794181294136,0.0540264034343877,-0.0123908629452931,9.69696550970915
13.797934767289288,0.23058101968618527,-0.0148202681672524,9.772057427422054
13.802725505029237,0.3413668918793235,-0.05953782622816021,9.732500068704297
13.817858419970179,0.5599017965497198,-0.04563599194404578,9.734465693601576
13.822653666051144,0.5829997041821601,-0.03233062188740124,9.709617530799873
13.837774906375918,0.642927081312894,-0.035570736451553696,9.763051003600513
13.842578865788548,0.6985443543294325,-0.043762077506535026,9.730334929765872
13.857691749695546,0.7233135718907596,-0.027283851661310934,9.709419265661507
13.862506457545326,0.7722632127112551,-0.020384847529953294,9.737976589757565
13.877611848816432,0.8301273284155283,-0.038854066677672446,9.721079066986896
13.882434356243506,0.8877920047568925,-0.0415790749133635,9.697782134932782
13.897533711392038,0.9673135557188115,-0.02443909762527544,9.69298401355031
13.902365792319078,1.039764954753268,-0.0325945260571648,9.721461526410447
13.917455242617345,0.7350867326086262,-0.03515050684656056,9.713089589133153
13.922294755139285,0.47088926851710944,-0.03053867941778666,9.684552133711318
13.937376656225602,0.4245386029387559,-0.010867039581611093,9.737425481170098
13.942224206372488,0.3428009774829044,-0.03048866254587149,9.748273734513726
13.957298113604208,0.369356583146409,-0.02987497135962316,9.715087067166829
13.962152672069482,0.3155092312911286,-0.011101463381863939,9.684340079670928
13.97721889337469,0.20911392397215084,-0.029457085823574015,9.752898717135515
13.982080872597843,0.03928514185430165,-0.02925843998793922,9.742800559446183
13.997141035380135,-0.036994551771703126,-0.03971290572818734,9.697809569008415
14.002013216470175,-0.13347398163058855,-0.020763106451895306,9.707045982597927
14.01706620476386,-0.23299465441274606,-0.04345296021245148,9.723343742926245
14.021943027791245,-0.35346818260351426,-0.05380387847522516,9.70150601983474
14.036986926645273,-0.5511843363939535,-0.029462365023757493,9.690961016360145
14.041870520545007,-0.7113545660491073,-0.03544152612722799,9.725365291224566
14.056905728695762,-0.8019134469425421,-0.05217940286369245,9.7364149324383
14.06179497916054,-0.8775694840714323,0.000284989695906453,9.66521725000176
14.076825065486716,-0.9789920239648048,-0.01259622097391212,9.706851422484473
14.081722572002853,-1.0767415495061177,-0.03307981748110499,9.753142536110595
14.096745571858474,-1.2042066851517137,-0.0434343807512709,9.731898296287612
14.10164972763347,-1.3329631213386193,-0.030544005308049543,9.725779266686214
14.116667074653584,-1.3568041157385304,-0.01577236968074836,9.7386635690395
14.121579528444471,-1.450053789398488,-0.02013879772713849,9.770551643306675
14.13659070445595,-1.4401815863552219,-0.0036621076185825623,9.716851235381096
14.14150800261172,-1.2323538517280086,-0.023042410960558684,9.686382500627971
14.156513184668066,-0.9923389776342494,-0.026621872065384546,9.720452235444547
14.161436221056642,-0.9350571331537686,-0.032831238917221485,9.668386184560815
14.176433678280695,-0.9605525392189027,-0.033298450149541824,9.676817980941978
14.181364197719216,-1.0105183228372214,-0.012364690235464926,9.69591848382784
14.196357371674969,-0.989351868702965,-0.02882486663464253,9.743683847005427
14.201294094243883,-0.886848851037108,-0.013417436738230997,9.695613061350203
14.216281265056313,-0.7959453582366953,-0.03139771630487824,9.67684226454514
14.221222098769585,-0.7163650352644358,-0.04079594123804056,9.768077454667841
14.23620098928476,-0.6401790788950524,-0.04247691655643707,9.753082591517712
14.241147538405192,-0.5254889283361891,-0.031562228751461086,9.68201072804453
14.2561231786687,-0.33241087023192784,-0.02421546250695194,9.724475897473024
14.261074595702429,-0.15281576934492833,-0.034461672605857224,9.734657181403486
14.27604214641836,-0.07653745692757959,-0.02029954372296451,9.708825582903266
14.280997801332273,0.006081910712284021,-0.01819405562154165,9.663509043661822
14.295963525264867,0.15241876477749391,-0.055946300522824975,9.735281196603959
14.300927890326093,0.2761636030363431,-0.0486860381830792,9.697051929484392
14.315890922347654,0.4816764795365713,-0.028667646182917488,9.675341592973039
14.320859181820374,0.5605105843889988,-0.019776996209384994,9.735274385560787
14.335814255664365,0.6440030276113399,-0.038428139289046676,9.751228820175204
14.34078749801253,0.7217565860910382,-0.04275399190939559,9.718408652429641
14.355740618323956,0.7560104456297304,-0.02808510607592091,9.70186877403505
14.360720156708494,0.7875468115204909,-0.03853920431314396,9.729039697312906
14.375666002632492,0.8524758082320043,-0.060384307391651036,9.75492953493873
14.38064807261947,0.8783151418737823,-0.03355248572073278,9.704094677194322
14.395590206054214,0.9391954073034314,-0.013426923183115908,9.701345011000296
14.400576882465982,0.9894237986920023,-0.03995043664449906,9.719003078801824
14.41551239810295,0.8560485337382486,-0.03457320684677647,9.742402153962372
14.420502507603148,0.5954792006099531,-0.01929897132311021,9.685516122658363
14.435433675724882,0.4395434531078237,-0.030523215233499556,9.722996958407133
14.440426628771245,0.36778910975158124,-0.037597437724065666,9.738630507682405
14.4553523585368,0.3265560835608475,-0.023608358321646854,9.65959359451892
14.46034746283188,0.29136129885813744,-0.027242082059307615,9.681309331804302
14.475268210481866,0.2136245143182735,-0.036994975361451146,9.728931184938936
14.480268665082166,0.10991646092940563,-0.01966601901592042,9.724997294469679
14.495187775000161,-0.03292517499351023,-0.01600907961473252,9.669350993501654
14.500194879813929,-0.1364571691601682,0.004491328422201106,9.732009562129923
14.515111902289691,-0.24867613499230162,-0.03422771010407601,9.773300379169765
14.520121576121687,-0.3768487652945913,-0.016378814461824615,9.717729167437593
14.535036994905782,-0.533363089103444,-0.032850774432071496,9.677328789764184
14.540051616435063,-0.7156914890234458,-0.04212844530838201,9.71513429371103
14.55496168684027,-0.7942806373625517,-0.04454451260778935,9.7131819915879
14.559978099011735,-0.8910165896026299,-0.02205718269848748,9.698281693914234
14.574884934945553,-0.9933892695114092,-0.013560500794695188,9.702734213572443
14.57990395843013,-1.0533961690991465,-0.02093762613929434,9.75197140890003
14.594807269576888,-1.1631438438376809,-0.029372761834185208,9.660794536683616
14.599829682709101,-1.3144730368991795,-0.00995865800578657,9.655524949663453
14.614731383174782,-1.3080314645920612,-0.01491549138905841,9.747171855430226
14.619756719500376,-1.4396318355485924,-0.045931419126816204,9.747081167941523
14.634653057416156,-1.4563601322565813,-0.04378172063254422,9.716786851399954
14.639679842438346,-1.2783452692440391,-0.027892175127295492,9.728607013048302
14.654575870194,-1.0631471209213221,-0.028859424649911675,9.779499394274698
14.659606908614272,-0.9302295997847904,-0.04866645560605684,9.736211049235855
14.674499335148807,-0.9036195598073773,-0.015823976440753153,9.674089497346635
14.679531126405823,-1.004383239847382,-0.013428595761667132,9.73410974076075
14.694419657437756,-1.033933228170439,-0.029681495201024238,9.722082007502895
14.699452614395748,-0.9661467361468247,-0.038539038985093255,9.69901754434593
14.714340303565749,-0.8561218686969666,-0.02365183897038603,9.69022044068461
14.719378503805224,-0.7459004883124078,-0.00897558760754745,9.725776749031969
14.734267113771473,-0.6230916650867082,-0.02082752782052486,9.726597595733196
14.739308573251579,-0.533415641332007,-0.020491858095611343,9.670350249268113
14.75419471593138,-0.37844080316784057,-0.0243285252026592,9.738068544799493
14.759236489885726,-0.19367823443457813,-0.016485316814034177,9.745125546834998
14.774115592342515,-0.08754366499019864,-0.02248490644028873,9.714471920338536
14.779158592986047,-0.0020736189581053352,0.002143768567761633,9.703619046247553
14.794038846280113,0.1308073241459394,-0.011415192233102802,9.741530767469774
14.79908430329892,0.280935577343462,-0.04424405007746615,9.72364011585739
14.813964462227922,0.4578452484883436,-0.02862994084552262,9.688069689003962
14.819013081363723,0.5313432812787959,-0.015911926301518126,9.710416740743094
14.833892017053634,0.6257559720421749,-0.039415793230686585,9.719276918470335
14.838938600226438,0.7045511129820357,-0.03231514306042846,9.687419005381425
14.853813500547286,0.7640565116317037,-0.028059292073149878,9.698450902349476
14.858862713814688,0.7782328127855274,-0.050892215067924906,9.717585337017317
14.87373647099238,0.8473576038467988,-0.05406885749868752,9.73021220509075
14.878786553077697,0.9023193466741459,-0.0538663994947258,9.647959887673276
14.89365996676615,0.9620148672702367,-0.021590601012370033,9.70211104754435
14.898713348708421,1.0761951333684292,-0.04031853852330226,9.769574908564316
14.913589122958646,0.9155663068557157,-0.035012194936741514,9.732199171340625
14.918641874303766,0.5847823914112757,-0.03467702087716975,9.699373418975908
14.933513953749507,0.3885031977267146,-0.037154602133032025,9.743870129260857
14.938567670150386,0.3906733113176834,-0.01812629238462276,9.78178856620743
14.953437305232303,0.36589154819783676,-0.03994616458695399,9.708825649127311
14.9584896607896,0.3240709078495934,-0.021273685346900835,9.711018086959479
14.973360000490516,0.24526445564787308,-0.03473263982733794,9.766775527092012
14.978412841562712,0.12739942365267778,-0.03158505208925028,9.692639320393663
14.993283058337045,0.01100823250477899,-0.010602891186890534,9.68566847780349
14.998339413583786,-0.11653589181950391,-0.005164471152305914,9.703947638600008
15.013209787850199,-0.23270769307570904,-0.046213218939339065,9.730125173126241
15.018263316382454,-0.31901713095706563,-0.021160856710911103,9.718956536412545
15.033132644999855,-0.5008524668245737,-0.03347848286093657,9.707144627576328
15.03818498875666,-0.709720092048485,-0.042092158618297286,9.755668242701176
15.053053497068188,-0.7992697930136817,-0.036149960080106215,9.73738572168081
15.058106222456964,-0.879571146477092,-0.03937074448536299,9.713475831397746
15.072972289104518,-0.9853799818650114,-0.024443038221246157,9.725700179582699
15.078024559891277,-1.0652857441218986,-0.00930780030302957,9.756158777266506
15.092893588151513,-1.1486807992892698,-0.0018222797705300278,9.731187880620514
15.097946229236442,-1.3096603835538723,-0.018676197350843627,9.648485588728963
15.112818743499453,-1.3196698530814412,-0.006782433959189775,9.70426538588392
15.117872652533379,-1.4667740353160204,-0.033410422754458345,9.700449539242005
15.132745488338468,-1.4941191168066312,-0.03510386712637117,9.686658149017669
15.13779952519048,-1.2999864043326432,-0.0214278714480404,9.715274112564641
15.152672734969306,-1.0602533009545938,-0.036188794732547054,9.74271675279965
15.157724928064354,-0.9368129770610522,-0.04314033718987953,9.726538384086904
15.17259720622056,-0.9379949209994488,-0.033288415312324245,9.667640305042008
15.177649650537958,-0.9717953753037624,-0.0051579336248176975,9.75262815664022
15.19252663096511,-0.9825795763208127,-0.028669381792521233,9.789037209936664
15.1975793887294,-0.9635177137838958,-0.0365316064436515,9.713761955016553
15.212456617618885,-0.8988348438423626,-0.009492630431039087,9.740261840213117
15.217507640723577,-0.7585841449079588,-0.03582254011243868,9.744708710341985
15.232382851075997,-0.6473578335095392,-0.024000673732420274,9.740866674075878
15.237431927671203,-0.5344752260862203,-0.013925935489793675,9.683957703260093
15.252311051948649,-0.3937671343417321,-0.021399109425401335,9.710917858581572
15.257359675975186,-0.24466965708535363,-0.01700863386589075,9.729005069444064
15.27223778563901,-0.11068174983545413,-0.025084279021177512,9.657367721549756
15.27727998559863,-0.02506479330150305,-0.013067525277111228,9.72882616190148
15.292158335494674,0.112125105317853,-0.014719063563605651,9.779523403630787
15.297204175906394,0.27195105997175867,-0.02154885837876574,9.708628207774673
15.312089989307983,0.426796521417568,-0.0131746750644329,9.673373365606322
15.31713375187112,0.5558604385773568,-0.01553802597227447,9.730787531143475
15.332019119313816,0.6123295455303877,-0.025206357882163414,9.750323640780453
15.337060398601233,0.6792786660026267,-0.037868739776272795,9.717690674207997
15.35194724846175,0.7348036928656791,-0.012580983391904459,9.673205399209833
15.35698385356326,0.7710242356986404,-0.014656156490532425,9.717513270789558
15.37187199758699,0.8400632177624581,-0.05026891119629731,9.723042492505687
15.37690966313148,0.9069531854525891,-0.01533827414514542,9.690903983503997
15.391802637574434,0.9144843840729113,-0.018539792305828768,9.702629168305208
15.396837645257921,1.0275384834749557,-0.03665166000504889,9.7277034484033
15.411732516310828,0.9821568871921985,-0.04573784021903663,9.663165009789878
15.416766008775328,0.681790702105946,-0.02712165167132451,9.654485637905493
15.43166362876731,0.4596773521462104,-0.027441638423265413,9.744147810001918
15.436691565936037,0.37622848784117796,-0.005534293331222551,9.731760661544683
15.451588989591334,0.33585659512195676,-0.024622441346037013,9.666314690700993
15.456614741421538,0.31305864464778,-0.017131791374501968,9.669964901560622
15.471517975085787,0.259338704557301,-0.060034557252571376,9.80946883596871
15.476541550372767,0.12951795466001814,-0.05680663481320013,9.756010389732468
15.491445656843172,0.009390737741804041,-0.02894868408860824,9.71994547336755
15.496468184016285,-0.07588939415343397,-0.006986748518259499,9.744510466033953
15.511379365897506,-0.1874676207088859,-0.021616990260887127,9.729909095764835
15.516399148973452,-0.3195573666479172,-0.010157458792729493,9.701709437318614
15.531313592098048,-0.47281180362838876,0.00041716995434517884,9.689015534079134
15.536330210581449,-0.6453194996593495,-0.03364063091843558,9.7532101842334
15.551246687743308,-0.7557876009070843,-0.047676360601965326,9.70701496036121
15.556257170367484,-0.8468484413190838,-0.010475058369986667,9.652718162945334
15.571177086602505,-0.9627358159169165,-0.011183526986603253,9.752699777609092
15.57618658162771,-1.0493581941592058,-0.030128478003993313,9.798050328673074
15.591108807037578,-1.1472656747744543,-0.017121638808795085,9.716583348763955
15.596114906203074,-1.3131379858585928,-0.005025546710198041,9.713054720230579
15.611044075940223,-1.3221680977152508,-0.026560101190897176,9.751299440793169
15.616045759163846,-1.3924974783715096,-0.03288421656578603,9.741897554698628
15.630976360695362,-1.5320831217039017,-0.011572932628160459,9.695732043261387
15.635973493645645,-1.3577746789439422,-0.027942034567714855,9.689651724682426
15.650910502434076,-1.1099861618009228,-0.03867628966004494,9.748412900025398
15.655904716917524,-0.941430856458586,-0.030271885945635964,9.652886496785356
15.670845585944571,-0.9665502629407569,-0.0031572087596612153,9.687273116602375
15.675836919537309,-0.9753118911411742,-0.03741013849291215,9.755862350625295
15.690781292736272,-0.9426248214844518,-0.03546095295836001,9.759725777752722
15.695767172185935,-1.0308219064742818,-0.02226191646735038,9.701562205541116
15.71071795538281,-0.9247681487212709,-0.019978783057562878,9.731178725147018
15.715698428704922,-0.775997153165324,-0.04517026856200163,9.809677374391423
15.730651133037663,-0.6240513179419656,-0.022897714378867156,9.7279133787594
15.735628367153765,-0.541381072863596,-0.004187898323798649,9.686396347717773
15.750587678429305,-0.40350075494458426,-0.013452036561822643,9.741087219424564
15.755558334800948,-0.27359457893836336,-0.030206161995768532,9.691836603541333
15.77052128786598,-0.15338974497922853,-0.040542920092111426,9.689767647086889
15.775488530624441,-0.035179416020542795,-0.024299896737858043,9.694536461372572
15.790457527009393,0.09043193465483718,-0.018716012460629938,9.74416530731189
15.795420652985833,0.23104152096560746,-0.029886823519946,9.702034552463703
15.810395723102129,0.38848676368674817,-0.03110911203367199,9.689199714652677
15.815350908810666,0.5262365765931747,-0.04727749365611737,9.770915786204275
15.830329572688994,0.5913830783602806,-0.05096903861753113,9.73963534162851
15.83527847762797,0.6785079949747914,-0.03722774969707006,9.682227492600378
15.850260191447074,0.7023954546337731,-0.030995100950854726,9.690739270912285
15.85520233913749,0.7584686716800013,-0.025348609620254488,9.781679525711287
15.870189954241987,0.8091531868900592,-0.020012860847324232,9.733144304129544
15.875125280638912,0.8816467367031844,-0.007441388367624884,9.684061136499153
15.890118529793531,0.9326554062630105,-0.022381902272887055,9.721937524833272
15.895048749890815,1.0012027962310095,-0.045747621794747687,9.720368647174203
15.91004834004912,0.9729152521088749,-0.04314660252152267,9.689816044487987
15.914971766774613,0.726392823375408,-0.009496126450213702,9.691996723487836
15.92997640988859,0.46407296226912087,-0.04005557964863084,9.761487063247563
15.934894952372863,0.37190484341338964,-0.024693014768888955,9.71261908577157
15.949907464319773,0.3142163135539393,-0.036627025932545486,9.665949964258761
15.954819721957312,0.300239765813669,-0.025933159764886977,9.733942318573908
15.969836708940509,0.2684435011884852,-0.026004853051707764,9.740812625662766
15.974739957474869,0.16098239893379995,-0.027268496603491663,9.689685677219549
15.989764383179198,0.030616474266544774,-0.023511528227417047,9.710539172074839
15.994663583298612,-0.04533778858540509,-0.03693256394174702,9.751285628380996
16.009695323944317,-0.15788199989619392,-0.031015500640882734,9.713253802928795
16.014584716644467,-0.3080970533187084,-0.03261791121407113,9.674204491777404
16.029619223540887,-0.42900846057665487,-0.028506184027662362,9.72554777600515
16.034500831048405,-0.6424734084807453,-0.044494099110197374,9.71296187086674
16.049544715240092,-0.7761760284012401,-0.03599125893206717,9.646931621737002
16.054422032006155,-0.8466604394062763,-0.01937274695753713,9.67703246844509
16.06947286040711,-0.9444479576374039,-0.023267952074313564,9.707413219296797
16.07434226761773,-1.015817568703179,-0.025490315540786967,9.710299623648034
16.089401284883344,-1.095126467669035,-0.008523645107823743,9.695363850142781
16.0942633307023,-1.2501051797991383,-0.01711943676740694,9.732707085292876
16.10933021114222,-1.3149709621615733,-0.023924792241957937,9.805321996353216
16.11418623042025,-1.396029400397347,-0.026818630489596127,9.71972240436203
16.12926173985765,-1.5256785913513562,-0.01071433789677703,9.711102900694453
16.134109772080716,-1.4292200082158384,-0.009082934927003041,9.748055266490123
16.14919146771634,-1.1803162555801345,-0.019099770193606397,9.723075174796348
16.154031560109132,-0.97322247592163,-0.03458907749610922,9.672132967342888
16.16912359627086,-0.9496951592437155,-0.01331271289772815,9.68155929051878
16.17395591452849,-0.9908341176479825,-0.0327645896967148,9.747408649440201
16.18905436243132,-0.9957889005008438,-0.03307838254105193,9.703958289030112
16.193879163277522,-0.9426507944849428,-0.029954915715699228,9.679188448452761
16.20898854431707,-0.8831689757245599,-0.03128793152734497,9.745607915627502
16.213803752062407,-0.7806450213190463,-0.03518010530532807,9.75012654131585
16.22891657505333,-0.702472204751538,-0.033759513458759556,9.698820047915241
16.233720098045794,-0.5681468319483248,-0.009425079715285039,9.704938541932002
16.24884162361783,-0.43704533182613786,-0.02186495669866157,9.785983813360357
16.253638638559853,-0.2806372708841389,-0.04389316515296827,9.722087802742683
16.268769891989287,-0.16994156523729628,-0.03524867085751004,9.692463759477018
16.273557326164127,-0.08961799445414503,-0.026249858912488037,9.739148318937554
16.288697849366045,0.04921448038050997,-0.03469183910103986,9.74144139226666
16.293478761666744,0.22019562342181603,-0.03392066056332106,9.698660660197389
16.308629154540963,0.36407835459770155,-0.0171579071115108,9.704358036886862
16.313398445912128,0.5043339861749551,-0.027623596015883718,9.764141551488144
16.3285578634574,0.546188890838802,-0.04538998350103966,9.704901006354895
16.33331787467705,0.6191648493808739,-0.03657156574898577,9.688492771136133
16.348488347419885,0.7028094626504909,-0.02753785941238179,9.744408502090025
16.353241451921207,0.7474161771386477,-0.050316135048440666,9.748540426591317
16.36842286092692,0.8039625847072007,-0.04047672538359209,9.669716442790662
16.3731669260459,0.8863362478251441,-0.030156778879176813,9.687813137640735
16.388356501519148,0.9079016023004957,-0.030230694143464538,9.731637392722206
16.3930885495233,0.9488812782583738,-0.03725100900847374,9.710503681874442
16.408289149142483,0.9698815156247789,-0.030265651060148033,9.693225938519257
16.413011872649022,0.7838074599390242,-0.011619187515301435,9.741532881084025
16.42822184004402,0.5403584305806739,-0.03404032261818578,9.722649249010516
16.432932448584136,0.42287838173362213,-0.033350337456705174,9.705959813729626
16.44815062815013,0.3779497353466219,-0.02909964052597074,9.71101957497143
16.452849602705616,0.35261338770759276,-0.03216455036444786,9.733702190897839
16.46807956810363,0.28605804007123775,-0.031673644738014484,9.7362035505379
16.472772500369324,0.16724394334018491,-0.011524796602932241,9.717173413409261
16.488016295484382,0.04311358097905748,-0.0035022114344695396,9.739140104376341
16.49269699168711,-0.04084387929069781,-0.029033633630090466,9.810580048513819
16.50795390786365,-0.15398471246022863,-0.004333439249431073,9.719504011682536
16.51262542490223,-0.2982141417402469,-0.025496672140073385,9.712761876970754
16.527890365215637,-0.360758359278322,-0.012396867482484832,9.732583517161567
16.53254840385838,-0.5480641941022456,-0.051545161133620045,9.74113432026353
16.54782259088799,-0.7460597199196921,-0.04305875993809035,9.706867562900653
16.552468093602002,-0.8446431210284795,-0.03363369015369316,9.714540045787594
16.56775640403166,-0.9241903805021714,-0.01910571324956713,9.746096065125858
16.572391731373262,-1.0018602215606023,-0.0245548270362401,9.681896699028803
16.587690860018338,-1.0802302452001327,-0.024419792360471898,9.692866144361098
16.59231526918883,-1.2133392589658074,-0.01237280698307206,9.6959544037349
16.607627456763904,-1.2803579451327491,-0.021685765921132607,9.720679609936019
16.612240677897045,-1.3316395913902954,-0.009222158922019618,9.707887329973577
16.627560758912217,-1.4792120736614471,-0.006511842725971864,9.710190973107983
16.63215736170986,-1.4352867913327685,-0.014008619180338227,9.802370443393249
16.64748960276332,-1.2207631045646798,-0.038584291533862086,9.76348404631388
16.652075271625797,-1.0222797864995254,-0.014293060505951463,9.660593247976985
16.667422088177233,-0.9593665045062487,-0.029601074296257093,9.72810130471818
16.67199514398784,-0.982454538960291,-0.024957552453289223,9.707301847728226
16.68735311180897,-0.9902084119731406,-0.01678017034979031,9.666636509206132
16.691914693339413,-0.9214377596404693,-0.03106914372796696,9.703341774553238
16.70729088263291,-0.8637699013166997,0.004214065870792715,9.728501048439007
16.711841436477425,-0.8499715679376679,-0.028479942586155396,9.69473094873612
16.727230693777333,-0.7621016110388457,-0.03159286747332718,9.66022227334845
16.731768102597787,-0.6243416362246801,-0.0003526816468414497,9.754202709610944
16.747169828914735,-0.4834964462621849,-0.011940948208263483,9.75448967673443
16.751692564535606,-0.31832028905854187,-0.029760918674075855,9.719089369806309
16.76710639038439,-0.19595264909955873,-0.008322182488851098,9.714049469379665
16.77161397625796,-0.09422252525157268,-0.029278405818450894,9.75557182071676
16.787040680246886,0.019135188325179867,-0.04831246046870457,9.75531481952346
16.791534485921066,0.13783098234088412,-0.026092336391999402,9.685971794588866
16.80697625599376,0.2813169826875605,-0.024308139615062778,9.707260755223906
16.811457994728716,0.4680006427858314,-0.03385640185988044,9.739863462353426
16.826915616961035,0.5442987067255884,-0.03072869013571435,9.684832141210256
16.831383334422615,0.6160411595401211,-0.02528465517936749,9.71269995888967
16.846854598530836,0.665247512265829,-0.03038556443687619,9.71877316285222
16.851307704111527,0.7224551353817625,-0.028838639001135223,9.718821388807104
16.866791622622912,0.7627487663374115,-0.01128271133049744,9.681830463674956
16.871227587340716,0.8098644083903711,-0.01504849175508021,9.722165688971558
16.8867260984158,0.8767437007713429,-0.02897462563501283,9.7471682648834
16.891147044823047,0.9278389524971965,-0.02198958868277575,9.702585223277357
16.90666381066525,0.986752204280889,-0.027753881676097807,9.700794229317037
16.911072136690002,0.8703942592758367,-0.020079157403530667,9.7222748132608
16.926601578644206,0.5945007051311051,-0.04713295012925374,9.716490777884303
16.930991337147482,0.41576535296572104,-0.0060258599597948345,9.703214549065263
16.946536414732314,0.3569450005101577,-0.005931562261919415,9.73916287957446
16.950909146585033,0.33219666460436276,-0.055839104674782286,9.721969078638542
16.966468314061945,0.3120406863726472,-0.03302149779710215,9.65885238425108
16.97082573420739,0.2422717082970077,-0.029880494995358286,9.699149914561263
16.98640242240435,0.09375309288999666,-0.017811178470847327,9.722484587925512
16.990744931330553,-0.024048412958404097,-0.028736018794053405,9.738483053466691
17.006338273456315,-0.11189661803628946,-0.017131343288988018,9.693536610958997
17.010663491675967,-0.26337204405619363,-0.02340064609006628,9.699391433981287
17.026272399785743,-0.3257700092375287,-0.017392928964998583,9.770035877001119
17.030580280497404,-0.5027093983990896,-0.013791375527785577,9.73334543810493
17.04620584303235,-0.7013539953448643,-0.021767156500525686,9.736261324073565
17.05049598158975,-0.7961167238936699,-0.037085314139228276,9.745235277612394
17.066137232856974,-0.875424675356736,-0.03224028258073017,9.735430228820736
17.07041256674581,-0.9575694495277047,-0.013275298645523861,9.68859486497338
17.08607143731169,-1.0729344225594717,-0.006230073906029841,9.703642377984524
17.090328816218882,-1.169690153458331,-0.0199444941774321,9.72547344226527
17.10600650234865,-1.2514373581481282,-0.046791479901629664,9.681967788911148
17.11024409148015,-1.2698580050250963,-0.024610314148836916,9.643798760462778
17.125939961960434,-1.4113409528325074,-0.009248447055849221,9.752227667712502
17.130163144249835,-1.482425802626406,-0.011844803333787762,9.755859863123915
17.14587656256577,-1.3124324281982322,-0.006801252725916662,9.748986825889956
17.150080518413894,-1.0734035488704534,-0.006624306084810037,9.74530660388443
17.16581355778956,-0.9468423093016022,-0.0248258647200443,9.760194798131865
17.170000556734973,-0.964399256387306,-0.027473926906557537,9.748430776531293
17.18575458214886,-0.9846233679939731,-0.014951482911248143,9.678987379402432
17.189925400027683,-0.9512877723747293,-0.0025910424465562334,9.74828060496453
17.205701721344244,-0.8925693162476709,-0.019409734775552336,9.720797338792373
17.20985175191796,-0.8363238278787882,-0.015760460262958034,9.669434491057407
17.225642831875142,-0.7248837872268558,-0.0250511577679276,9.691052738770878
17.22977326668267,-0.6164416914674112,-0.011008601460314344,9.715971091729944
17.245582469220043,-0.5317574078276673,-0.032838406066541745,9.692377179817491
17.249690310085743,-0.3716815228329691,-0.0032572300397878903,9.699481678966395
17.265520406691728,-0.22857006667892718,0.0029816107183754537,9.74086686206045
17.26960985725699,-0.11213376215741037,-0.015983723422978918,9.783856717880393
17.28545978321159,-0.019716398091382818,-0.020905418636865094,9.703707091309422
17.289529283225466,0.11001019341758418,-0.028183861949142342,9.72835018398287
17.305401317245074,0.25184776427640376,-0.04635351690896926,9.721455344282141
17.309452150133346,0.4284894948270307,-0.045716488862000484,9.739181919692596
17.325344628987008,0.5312302188381979,-0.008940808993509209,9.68736070663914
17.329372546442645,0.5780763666171505,-0.02455888483894141,9.72635113652995
17.345285668448522,0.6361654043168782,-0.024632048978968507,9.744258714082157
17.349293907399268,0.6839751298142833,-0.03769190512158077,9.629715079930364
17.36522740206288,0.7605467090704959,-0.016287561581223967,9.68299890306529
17.36921201933657,0.8414139468151767,-0.019355172927899407,9.75183657115836
17.385167379182935,0.8955466921015778,-0.02266147678152793,9.725182998480534
17.38913011374674,0.8933945190442915,-0.027879696582536653,9.697982840177165
17.40510681130032,0.9764219185986528,-0.036068090224671286,9.72088102630412
17.409049539621442,0.9148808016070225,-0.03936984759319791,9.737848059738
17.4250480142115,0.6611622950088335,-0.039540047191204936,9.704430941087171
17.428963938907632,0.4286244630702125,-0.02678880844897843,9.691942779058875
17.444983032929443,0.36345344794568485,-0.032219556321664976,9.73992814325249
17.448876366062063,0.33275784450868195,-0.02137814058189,9.71990711495114
17.464918894598718,0.33557994755367626,-0.017120886678243796,9.653838635067554
17.46879120755202,0.2906317738091309,-0.01963102015989218,9.737958815022305
17.484856349750476,0.1533348574698657,-0.026849646285895097,9.767650255446497
17.48870193507018,0.03312040719140942,-0.036886501947343386,9.67808683581896
17.5047927653931,-0.08873977726822288,-0.007187443129704018,9.64405565933281
17.508618459549844,-0.2572080558164062,-0.015504890820792675,9.75633117882191
17.524731963059512,-0.32805321180220787,-0.026617644423221683,9.775105871770045
17.528531447724472,-0.41708533475960896,-0.0011098934565957714,9.683448665032055
17.544669398029423,-0.6079995396171574,-0.017792605530296587,9.714822590601079
17.54844345690027,-0.7578823929709895,-0.04524079374967683,9.732814648204135
17.56460438308566,-0.8421848934382153,-0.051371077262045435,9.733657124661784
17.568352398738018,-0.9443116542856923,-0.032087582900567936,9.706853940850712
17.584541457588667,-1.0618188494775647,-0.01888132102441312,9.749578063414765
17.588265678205484,-1.1210469561478291,-0.01049714693403648,9.737914938166846
17.604477836409835,-1.2222995617379029,-0.01416087687892969,9.698108700123399
17.608178102203873,-1.292959452158373,-0.010407702995688333,9.692704553216346
17.6244185091724,-1.4438349428088104,-0.016694921622731496,9.73663648709064
17.6280906647614,-1.511453963684594,-0.013193760258747063,9.726992219914958
17.644353927689206,-1.3513739193278647,-0.02779864491341112,9.674522720566495
17.647997406657495,-1.1018274796387828,-0.016113852951386943,9.748335894676861
17.6642848571053,-0.9164358132960295,-0.014113880395946923,9.74980079431103
17.667903287527103,-0.9369283242792082,-0.006645280166523521,9.698238042075404
17.684221734265154,-0.9936366337481658,-0.0013694002949510497,9.718128421255393
17.687813032060685,-0.9876440548918125,-0.012097573699785449,9.780708405887134
17.7041598492097,-0.9262397292613586,-0.0122527369014006,9.75513882929925
17.70772331022426,-0.8587734567848951,-0.005411154680729834,9.681857332703892
17.724096814523058,-0.7424462055265109,-0.029635225870826367,9.719548069192873
17.727633938656602,-0.5221392050359176,-0.015012179397281101,9.742979476952208
17.74403828486363,-0.5437981713375434,-0.025932448682064076,9.643673561486546
17.74754999874164,-0.5951108888969124,-0.018928554766508645,9.682430794604029
17.76398281021981,-0.3913295841643298,-0.022791821055911855,9.768996241498062
17.767464553046402,-0.19526905175082,-0.03380065008492314,9.737121453111394
17.783925622106725,-0.04699853838034151,-0.03842014398755515,9.700425144629717
17.787377042686014,0.11686069329574676,-0.008844360758052842,9.717098278404801
17.80386927669817,0.2814924459201776,-0.027392815242814002,9.743115574884323
17.807293606982174,0.3595667700306607,-0.03182006197347344,9.706366752042866
17.823816532926493,0.48442416724860404,-0.015361919343212425,9.697269486363872
17.827209923780178,0.5345286740847013,-0.03590153982121733,9.745624370662203
17.843761562901637,0.6391756951593005,-0.03821393413328361,9.692578556810215
17.847123789703343,0.7255190016959354,-0.009552189021874128,9.666925159465523
17.863706465214833,0.78280770015643,-0.033488591899334445,9.694527072605004
17.867035787415606,0.8100042579904009,-0.03318084862090624,9.727178961861819
17.883647708180945,0.8355231113450012,-0.03322140637183772,9.698096824807545
17.886946592573654,0.8558869399736211,-0.03375964799433912,9.69171527267123
17.903593179317326,0.967116031641587,-0.031633345459498134,9.733859591842887
17.906862571540447,0.9758973435902806,-0.028575550405098456,9.71733778575851
17.923541024319654,0.7453478403738363,-0.029237186697038745,9.687654045303619
17.926775653402995,0.47963779752985586,-0.03891488243275239,9.721287246507538
17.943483479519443,0.3794585159653137,-0.029332646460872636,9.74264873167902
17.94668470126834,0.35576171063217893,-0.019160154058037743,9.71621477573448
17.963429602006265,0.34231805163278783,-0.013610782782219992,9.675626825596725
17.966599058198355,0.2896531827588999,-0.0370120734783978,9.733561665895747
17.98337853541973,0.1831592105856944,-0.06377905259819457,9.731943405417418
17.98651333171661,0.050399288789794355,-0.029760587398581662,9.704491294948085
18.003327202611963,-0.06967525535746706,-0.034804104556960286,9.718205542965533
18.006428781953964,-0.15582198511728793,-0.029698146748677323,9.739369252442458
18.0232748196811,-0.2722682645683827,-0.020061525040692044,9.739453271060778
18.026338388460275,-0.39076841810736196,-0.01082867965396166,9.70732174735039
18.043220606768493,-0.6140139108874262,-0.00579278361626598,9.74238202114586
18.04624991887089,-0.7675015669338895,-0.02120277691863644,9.789993056716076
18.063168652299822,-0.833895460221197,-0.020262482107097236,9.712494898285456
18.066160602159403,-0.9180417382352238,-0.019687859183194406,9.716947316705173
18.0831156159631,-1.0193808763999728,-0.025205420432142127,9.76019695562728
18.08607075899965,-1.0885126807364933,-0.034312415751481466,9.726072000668811
18.10306302336251,-1.2243419910684992,-0.03416876072886622,9.67683819886032
18.105977608805407,-1.2925779039837932,-0.02046395517596454,9.729881999917552
18.123004194154902,-1.3495430897100162,-0.020464041147037402,9.746041973385433
18.12588047948769,-1.5012022922634456,0.006684714002127832,9.699020208125233
18.142946354614633,-1.4312978407942898,0.00827728525230212,9.703491541894417
18.14578638187316,-1.177278884889059,-0.03677422173349278,9.754896798328003
18.162891106223515,-0.9844906960188898,-0.04037665985605788,9.731177188116055
18.165688437325564,-0.942326864028068,-0.005754503513933006,9.677870284453558
18.18283075134918,-1.009357134147873,-0.004904056333414074,9.712979731242067
18.185588688647115,-1.013688608558029,-0.010751731080997681,9.787565219280841
18.20277243066142,-0.9733490872675796,-0.018590330958151543,9.722257393473784
18.205491664154966,-0.8677762666204688,-0.0162447426799076,9.686995923825279
18.222717616997123,-0.7257777155970987,-0.011354605479355,9.724521351255092
18.2253953503582,-0.6541743666530817,-0.03168515397881524,9.70123864864208
18.24266271638934,-0.558235150836935,-0.008088215053432832,9.703317837680922
18.24529837873706,-0.4696906181378711,-0.004597909512350199,9.709614735417246
18.262607234883948,-0.3023119440783925,-0.02497186815907651,9.741210354401263
18.26520180275872,-0.16527076536458987,-0.02038883471797109,9.690739015811141
18.28255640223068,-0.0690078284693166,-0.017889122093672178,9.681766481912444
18.285107346332833,0.06856314468473323,-0.012652648912937535,9.753965135015237
18.302503309627227,0.20673982069412805,-0.007613676716349399,9.745684314009594
18.305010478954944,0.32761854910945915,-0.00973027875683353,9.712351184919473
18.322449764398183,0.46986763219846367,0.008242704346381958,9.729967004146756
18.324912391611203,0.5455951237037981,-0.023193081393808518,9.73621364229916
18.342397865479693,0.6287623356041171,-0.0365681899166224,9.731460681070978
18.344816018591757,0.6785858103957708,-0.022290776343488052,9.701370537543358
18.362349398602216,0.7106623514227733,-0.0233445642181347,9.722027118468409
18.364721439363954,0.7456900438744476,-0.024839686137349697,9.72507317773359
18.38229823479561,0.8265724997047574,-0.016951176717164278,9.678910570796328
18.384621455531086,0.8898164001934438,-0.018941902865760814,9.731784255471744
18.40224876312563,0.9615444171222363,-0.033221171909160935,9.758103010302582
18.404528431535784,0.9999637122404348,-0.026865100912478186,9.725696992245547
18.422203250432204,0.7852830630070429,-0.04330086583151911,9.695089409345316
18.424432653932282,0.5137325284255312,-0.032307039843114435,9.736280592078737
18.442158556535738,0.38826875744097916,-0.03459726727525553,9.788375256716185
18.44433942471063,0.3883225504307562,-0.03710395158338275,9.704081231382682
18.462112929021178,0.3875665901115621,-0.007831022160049005,9.683133076167596
18.464242855342214,0.33596704241528597,-0.046806200390782274,9.711989704719635
18.482066351562917,0.22062721726512322,-0.045859221821408495,9.68947978297666
18.484142828278145,0.0610594790088115,-0.012877162885919356,9.688277297648817
18.502018353671826,-0.08086038505494184,-0.0007152306259279017,9.725315625639734
18.504046074089207,-0.1789423764561842,-0.013857962623958218,9.738071939363435
18.52197153716608,-0.23990194380958677,-0.02890363027405726,9.69923750162484
18.52394206712945,-0.3401288530357731,-0.013815491752575865,9.701818061707591
18.541925259155196,-0.56280651156598,-0.010437688625074586,9.730910335007735
18.543846678142586,-0.7162278037038825,-0.03113706405153492,9.746471148672773
18.561883468811388,-0.81728230763711,-0.012264598371535427,9.718048842046944
18.563748987781143,-0.8823914337866385,0.0026349316102412955,9.726076649955179
18.581840156169825,-0.9710844362923053,-0.03254420779032291,9.77151438949045
18.583647924009092,-1.042070411088173,-0.013605194163062858,9.719255004870503
18.601796646310742,-1.1796523625180524,0.01424549998805553,9.674647321484688
18.6035501217138,-1.2697382390309417,-0.0067599472800691255,9.704847416117499
18.621754260603744,-1.3427148143755403,-0.014553039404480701,9.740301185541261
18.623449428365365,-1.510007760530092,-0.006435365209435407,9.70469054959848
18.641714561778542,-1.4777109370812713,-0.00743895480407295,9.742258477449429
18.64335067531545,-1.2264104751254257,-0.0035881710655133185,9.749424057038356
18.6616745760386,-1.0107639528384804,-0.022134758599454234,9.682034541978783
18.663252776421174,-0.9308435979608849,-0.02200285826297951,9.658500182568401
18.68163884004075,-0.9998335514154808,-0.008210669483549602,9.7304588481007
18.68315705655593,-1.0172640983225743,-0.026811784936183622,9.743736520874148
18.701606695949355,-1.0057797781824087,-0.024902810517339943,9.700398156709603
18.7030607737892,-0.9351862240379556,-0.014270496380986153,9.695104350959694
18.721565541285607,-0.8124838069397514,-0.0480754744716262,9.759166707752998
18.72295310911758,-0.663077365057162,-0.04743831396216297,9.75753115224366
18.741524393054874,-0.5208945210981866,-0.006395093865517093,9.665550957678525
18.74284919977641,-0.4647154439745487,-0.0015031822799850638,9.716507014558216
18.761484614799123,-0.36165554902002944,-0.009134631983250378,9.730522514178979
18.76274274145924,-0.24429333858011928,-0.01564958765576438,9.681594867148211
18.781445420412776,-0.12103542513232134,-0.01348452137413418,9.687080047360842
18.782638441102378,0.04021243335182165,-0.03463950015077274,9.726740670633529
18.801409637619862,0.2096431162493816,-0.028581348340930776,9.722625170713968
18.802537543791708,0.3269110391156709,-0.013397019158296811,9.64758096464549
18.821378817375404,0.4324498782323956,-0.0158832743076217,9.745311509089719
18.82243301355054,0.4943535604743149,-0.035454013174611665,9.75598781299234
18.841339231958134,0.561180899363927,-0.01215716642279642,9.690264050928898
18.842321775755337,0.6765209566555427,0.0060962963255526996,9.716923126666273
18.86130084160755,0.7387627515442247,-0.02233754027142593,9.731205830022366
18.862210338089152,0.7903086091032684,-0.033842170280721215,9.747878828485701
18.88126302485333,0.8184995633356071,-0.03587128425488089,9.694459207049134
18.88210053427731,0.8595486307949343,-0.028380648556373494,9.67070036904962
18.90122857635899,0.9177540800121533,-0.028553622622201305,9.722977790399021
18.901992804437274,1.002687509245258,-0.0318336880544698,9.670049653587306
18.921195325758696,0.8445564356271426,-0.0232884461659989,9.703196706440451
18.921879839303788,0.5792778091021741,-0.0362894838721729,9.731572048448648
18.941158478746324,0.4050935793635883,-0.04232606534635036,9.74290112368857
18.941765938550198,0.37180391194409357,-0.019008648953056487,9.751170396933622
18.961125351702236,0.3637647132331537,-0.0014846728777429883,9.734018105592359
18.96165387253338,0.33756229982538594,-0.01786267998561982,9.749376523692254
18.981094125888866,0.23758401260850082,-0.037474327775207115,9.734010576981124
18.981539032999127,0.08666436481766333,-0.031203962768232812,9.724200475329411
19.001062062485346,-0.016066563819089094,-0.03955599230236677,9.74784234149074
19.001425836095564,-0.11277152850999907,-0.032718270699816185,9.70105703778887
19.021031844759644,-0.2328975451895817,-0.03514027118481234,9.698090975924309
19.021309669252883,-0.32457876695451526,-0.02067654190430087,9.688022372349865
19.04100124278001,-0.493520364965666,-0.02695534717443194,9.708335630137455
19.04119482317391,-0.691329518706692,-0.04628638620522358,9.718563977122848
19.060975407262337,-0.821707781570742,-0.013279311206259355,9.687675952726929
19.06108107685548,-0.8876877014352896,-0.007510982929212903,9.756435727299554
19.08095097136211,-0.9788678710476654,-0.021384829917656004,9.751286360376726
19.08096681190308,-1.0290826170166683,-0.01396120398138695,9.680594670960112
19.100929536704495,-1.1346063880914308,-0.020533647789602722,9.685670747259064
19.10085236541543,-1.2685479102740136,-0.030226602285116567,9.769829284282753
19.12090322694887,-1.314194552895439,-0.025143588635615163,9.753793139666708
19.120729701363956,-1.4708681441788203,-0.01786046338560366,9.702447228491792
19.140877025994254,-1.4959605069217004,-0.006177240559082565,9.734142557458641
19.140607845838925,-1.2892712263905317,-0.023973030843569595,9.747638198268232
19.160854284597146,-1.037710141588054,-0.007719752938052618,9.700125542429106
19.160487165521694,-0.8989653685710917,-0.0213275690951022,9.695488341909451
19.18083195398122,-0.9474302287505252,-0.015176063893175967,9.75290647572277
19.180365320452427,-1.015247045018292,-0.023923264060885054,9.734156368827557
19.200813034078255,-1.0296303622417697,-0.001965510390714303,9.691007841468537
19.200243303752924,-0.9404973243938788,-0.004826870895034288,9.723219895323378
19.220792263859842,-0.8183285396753515,-0.013536835321652039,9.775602824918023
19.220114515246443,-0.68585802100793,-0.0325079490096591,9.71323827060875
19.240768871610022,-0.5801723617932817,-0.01006054398553157,9.70014354552857
19.239982651128646,-0.4832674882187322,-0.018841887890119986,9.736278683775135
19.26074367761316,-0.3667351037574943,-0.023022055280207378,9.753595535140821
19.259845373041426,-0.22927417433095534,-0.017417864955493863,9.687932628049115
19.28071984308742,-0.14753699506473958,-0.007790180243400393,9.722479462956201
19.27971172863081,-0.010713534896421732,-0.043419498951069994,9.711722980463216
19.300698827265617,0.1472584929319754,-0.03408179024311847,9.688771221446316
19.29957559412898,0.29478020568101376,-0.05043711276426908,9.690224951047016
19.32068186578231,0.44923863724027563,-0.027619873011702864,9.710360100633256
19.31943987820684,0.5411573034006062,-0.049228425719439854,9.73990783114502
19.340666951729098,0.596726274049934,-0.05289210584051657,9.714707767075414
19.339306639734875,0.682184786280882,-0.018183868668014583,9.724807088647612
19.360654305939565,0.7276991386907014,-0.022375657812639425,9.773605107304482
19.359165792970412,0.7585436660219969,-0.02668991216867543,9.724275974877473
19.380636362258564,0.7804990345158288,-0.021313775895575197,9.710965614276644
19.37902371433917,0.8519282386295889,-0.03676357717042982,9.720035679027074
19.40062395412604,0.926904293404898,-0.0211707445088077,9.684864490602711
19.398880722874775,1.0172228650829116,-0.028323019197538365,9.681328133999314
19.420613218055912,0.8804440272276379,-0.029536271136263455,9.67411378767698
19.41873498270747,0.6013132723066198,-0.03088631688454223,9.725807700733446
19.44060280464138,0.3998430509236824,-0.04668102594743785,9.712546567561024
19.438588667525817,0.3921044872096307,-0.0284444426499319,9.700752527207346
19.46059393324166,0.3865776199799242,-0.021876740066206064,9.725037481852425
19.458438870102594,0.3659939031416729,-0.059141752429557104,9.722519531556253
19.480588975225345,0.25412616675931327,-0.036948561657135795,9.749554325779048
19.47829171888871,0.08764478775721928,-0.0121877710665824,9.712551199302627
19.500587389320003,-0.05262080010974427,-0.02989982387154792,9.77769707928868
19.49814332639649,-0.14436455706909612,-0.0412986271499032,9.751599699889615
19.52058668974464,-0.3000547444967075,-0.01742295452373642,9.69310380074785
19.517988066929103,-0.46107361113166584,-0.007520727414250901,9.71984056964812
19.540588025267404,-0.6216124173015751,-0.022090115145997583,9.716620639396742
19.537836129938945,-0.8145268662185218,-0.027710719749894103,9.704254150108136
19.56059269431384,-0.9376944227049042,-0.027499543258549197,9.722313068885038
19.557678987617102,-0.9844235260945733,-0.02542576272815342,9.763892725795607
19.580599434436902,-1.0423002354936914,-0.020420839546857545,9.72698430471738
19.57752305455758,-1.1001436202711066,-0.029639985400204735,9.682307912106623
19.60060769203726,-1.173018904927939,-0.019437810220248514,9.703361637089788
19.59736120324836,-1.190890029778802,-0.019626370804183647,9.772454270496569
19.620616122679866,-1.3183531528240953,-0.015193724236236425,9.696866144419236
19.6171940697436,-1.4252774146188754,-0.006305274326065172,9.680386511615621
19.640627164009203,-1.2987364301753153,-0.005529381704637595,9.744759414853801
19.637027772078312,-1.0351466890033592,-0.016645650641082817,9.761004433441162
19.66064293389944,-0.8310353708866882,-0.03842350633754252,9.684791500870897
19.65685638670171,-0.7765092421247763,-0.018498735248898505,9.71195461533787
19.68065563645349,-0.8211545202736913,-0.025566361241753342,9.745696990581177
19.676678748946728,-0.8508659415443359,-0.03002385157607563,9.73936134903924
19.70067312829778,-0.8042776248266059,-0.009411426094619283,9.696948462434479
19.696504348935665,-0.7045302027831315,-0.02482511038321136,9.71930759654293
19.720697199046246,-0.5805412253068,-0.04603221861743734,9.73723526021934
19.71632599557442,-0.47298834708092774,-0.00540461125887901,9.621373039308713
19.74072316240454,-0.3857678154240602,0.0002837730515580801,9.684705497803314
19.736143868311554,-0.3042022649179147,-0.03028900342357747,9.78522234415512
19.7607483790005,-0.19662904209455107,-0.03299747342754367,9.74498399114243
19.755954919200864,-0.09969482588926049,-0.03308112864824055,9.709250087542497
19.78077943234374,-0.006589841998362472,-0.021852711545856506,9.706522559635484
19.775764157454773,0.11535023298663372,-0.02613274023801058,9.78716985955432
19.800811062738656,0.25362549366536646,-0.036253418947613254,9.723563055198989
19.795569260728325,0.3235555742098862,-0.027065902503300793,9.713816543832142
19.820850756353398,0.34895867105609335,-0.03965842938980967,9.735804848043305
19.815373275463273,0.358826333094636,-0.044335158204401544,9.682889856244383
19.840892301640377,0.3900195840787064,-0.011167675142647864,9.67913305160019
19.835173948006904,0.404587677450847,-0.018328457088055996,9.718533061264901
19.860940081838308,0.4628832653914827,-0.024008280480304074,9.738138929690056
19.854967203993603,0.5175847710176561,-0.03400708349700513,9.69898347312773
19.880990499467053,0.528750294741134,-0.03617348810350664,9.670263136101111
19.874759481431806,0.5122923167645496,-0.03408478117432783,9.751616775772593
19.901046102252817,0.5061568404291974,-0.03278455275308599,9.72483814878645
19.894546991286045,0.5323667318884044,-0.050856838926419734,9.720910468866261
19.92111048790741,0.4468866927573928,-0.04068677616159153,9.720515322344037
19.914331053167203,0.22259313241263623,-0.03839438039029431,9.747259380101214
19.941175617989014,0.04177700446114534,-0.04999272124384026,9.736250684344602
19.934107594542965,-0.04865554042006634,-0.032301353852829506,9.685209864598356
19.961245262770156,-0.03538917605447249,-0.016940186890677226,9.7269687806137
19.953874224429466,-0.02035365605599902,-0.04147418714807109,9.713733440884216
19.981317108999637,-0.09683507282351665,-0.02841429377087378,9.666665911057928
19.973638330242547,-0.19787069529197263,0.001407395854256471,9.707809227773518
20.00139928443197,-0.3075096857241034,-0.019833268249171965,9.765274683714587
19.993398494680196,-0.3840501637308935,-0.023993227064215437,9.72031241046718
20.021486169305234,-0.4334651854357045,-0.020069582220044558,9.674691535260495
20.01314822050636,-0.44841967331280713,-0.009138802788573012,9.73278377130835
20.041577674411375,-0.5007987424537582,-0.027365411178214456,9.776780053925492
20.032891956881347,-0.5650079810892872,-0.025991516136096286,9.71764297167904
20.061676574306205,-0.6284985390589899,-0.009068025310961993,9.704386292021347
20.052628173424033,-0.7062492501768585,-0.008113221856123403,9.730634027173528
20.081782106269365,-0.7308381230186936,-0.02499170117966871,9.756832236436948
20.072357049903385,-0.7200771450564732,-0.021430310848550665,9.688841165238287
20.101897278113647,-0.7979207272319025,-0.021616697248677177,9.698206902236358
20.092080365403184,-0.8889301515019119,-0.03715605977212296,9.734906551998234
20.12202378735061,-0.7806919076648237,-0.02985714037940425,9.702616881556645
20.111798231774383,-0.6384091769870333,-0.0097821375560985,9.712950962675587
20.14215705217621,-0.5733465268247072,-0.02246101077929327,9.71882386063143
20.131501157316286,-0.5588709721508405,-0.05483264479663168,9.739743154597118
20.162296919150094,-0.5305298503537329,-0.04360390158942915,9.683296919004185
20.15119262187295,-0.48531856904028137,-0.02736093127820547,9.723765636503485
20.182446351845687,-0.41671535075846017,0.003115283170499265,9.77057282427577
20.170878799950138,-0.34902077758667954,-0.016969301174876227,9.724032078455691
20.202613656462212,-0.36393929514788353,0.009474061752992601,9.724858035063413
20.190557625778855,-0.3458560385693517,-0.013132952229750172,9.746450833771357
20.222790380531514,-0.2811407161614944,-0.027110683164134595,9.77267509025896
20.210217917652326,-0.21266460602091117,-0.02331771075934465,9.721273632810473
20.242975506612712,-0.18383870187013712,-0.010504600431266336,9.701991106950517
20.229868924998684,-0.1693283825316235,-0.03747670711344517,9.74218771007958
20.26317978793288,-0.13764032186730674,-0.06293727031270067,9.687490724058428
20.249508709040068,-0.0769156926289512,-0.018102090168930447,9.66746555211966
20.283398171959806,-0.034730973680874744,-0.017522882421986987,9.715219984307303
20.269133708004343,0.014598216053167303,-0.04704627848340282,9.741711408917238
20.303630143546876,0.011799680159933589,-0.01918200471305294,9.725147308628774
20.28873833780756,-0.0001807138531343713,-0.010903298689208382,9.696971108044744
20.323877583635447,0.030376468031881033,-0.027765277928864924,9.773750549888176
20.308329952262586,0.020424477044220426,-0.03377211156410179,9.753591420700742
20.344145072908326,0.045750537747407775,-0.011424048346443913,9.695793535877943
20.327900782519237,0.05329345651483492,-0.014405983180569024,9.722075883287353
20.36442904490281,-0.00981200795431753,-0.029859131457859015,9.707222463103625
20.34744904314416,-0.04468203472849915,-0.03315808008081093,9.69942872505048
20.384732886884514,-0.05276505792404539,-0.03129325033451682,9.682065991291989
20.36697228871337,-0.06061250942897508,-0.03099047587907854,9.72213486191307
20.405055468786355,-0.08838949835469362,-0.03900017335752189,9.713865396441422
20.386473252166635,-0.13615871236582122,-0.03346750786836709,9.676521944025515
20.42540952760609,-0.20623119937390583,-0.04500075550115355,9.730609462915181
20.40595147078531,-0.25349251593036526,-0.0324666729855988,9.77529013504885
20.445790668808904,-0.27869999127653683,-0.016814452036686467,9.722667202826848
20.425398931723308,-0.3188255202297926,0.00411740563426568,9.701086453063773
20.466199924776838,-0.33250832405892133,-0.009212376409674232,9.733238282584848
20.44481404774655,-0.3070816159473057,-0.023054734292373327,9.775870408686714
20.486643882046195,-0.3435624890687708,-0.013850640121451464,9.704953860072017
20.464192950842676,-0.3950686165405092,-0.009894965963493993,9.726804904324638
20.507122503071837,-0.4096043297846259,-0.020822633842337585,9.73937295895271
20.48353617642355,-0.3612079827163041,-0.019892034161241186,9.727612690091267
20.527644946324795,-0.2868321007913825,-0.015990444338753504,9.714175753725833
20.502834850854832,-0.2438755056515896,0.009458785606282655,9.7390236531842
20.548211559824352,-0.19890698931171324,-0.0006425797869700425,9.741706487094003
20.522084987882128,-0.2264911379852073,-0.02103040441584146,9.680788110045555
20.56882868771981,-0.22156625629664237,-0.030164697695975642,9.704246423585579
20.541282943854508,-0.22029038938459977,-0.011792942263823072,9.735229781722404
20.589503732218517,-0.20625939883057726,-0.019772618387891603,9.729233491634652
20.56042071235799,-0.19951698276074276,-0.01839285850631467,9.69695141749792
20.61024591458816,-0.2102157693521406,-0.016837166802960834,9.712411563661359
20.579493275239518,-0.22805924324661841,-0.03337054607335384,9.749357186973793
20.63106187533474,-0.23350219157277632,-0.021360369926436567,9.729303904188162
20.59848657730251,-0.24372146445018383,-0.008837741972246696,9.72819252039021
20.651958725008132,-0.22081347067552468,0.0022450137783716056,9.734092405851971
20.617392578679592,-0.20901621032977707,-0.023905170791126213,9.738181822792788
20.67295545370105,-0.19862848871073943,-0.03499374628077259,9.702771210194191
20.636199812469584,-0.22100162591783495,-0.014101553230122053,9.67531044851603
20.69406155535852,-0.1946245745747268,-0.03956132063094494,9.723176542514262
20.654887733019926,-0.21017522153294324,-0.04895972041790659,9.680666304195869
20.715295198067885,-0.22829721036920264,-0.011498580449668602,9.68027490609513
20.673436166705653,-0.23587808145689207,-0.007130898229183435,9.771059937481809
20.736677813922416,-0.22398063669230114,-0.011888831662248309,9.753713736952943
20.69182350023026,-0.23153393018977061,0.003793864821318704,9.718144023249318
20.758236575322766,-0.23308598223058039,0.01028130490922658,9.736449207639406
20.710017875937538,-0.20211876447219118,-0.0074360789427433726,9.775413649906051
20.780006394446108,-0.2181617034254511,-0.018197316293227753,9.729123533921127
20.727980413254176,-0.2199144223130305,-0.022200785356405024,9.687045202957945
20.802027726803832,-0.23731574688344062,-0.04144433502693258,9.723265969145881
20.745659854073313,-0.20553714683243143,-0.021421219226689575,9.71400955047475
20.824358589392144,-0.2201570939668987,-0.031010639451838913,9.689102668832213
20.762996035231623,-0.24610601484740613,-0.035220988628235715,9.67757394519513
20.84708167090784,-0.2392374801233606,-0.02964796402316205,9.724295635690254
20.779903636188347,-0.23370021980450997,-0.035494817349141505,9.720060993944248
20.870285016801137,-0.23214580164486642,-0.012721822185295967,9.684020949228492
20.796258738443512,-0.22922692199869096,-0.006622386700377598,9.73256933894681
20.89411157378615,-0.22422352528458056,-0.02683549713810229,9.75069928098153
20.81190103169393,-0.20660932827840386,-0.03451326875515379,9.72867991305278
