Time (s),Acceleration x (m/s^2),Acceleration y (m/s^2),Acceleration z (m/s^2)
17.06734487391222,-0.1980167895554364,-0.045235578935719674,9.725555684630475
17.094489105874036,-0.2422219748370691,-0.04700268888748303,9.686246677422849
17.087527592667424,-0.22547950218943089,-0.01029401777869493,9.708182408073418
17.114147125909316,-0.2268497648952113,-0.02271423281701787,9.762156159568208
17.107698986662676,-0.21830947822583327,-0.01305785709727169,9.694455408053521
17.13381407648442,-0.21131763373707907,-0.008637970128720909,9.680057468745819
17.127857864607037,-0.23610014714437394,-0.020071259556611667,9.743347275575651
17.153491231046935,-0.2079491729559786,-0.04053515791837659,9.777676341760781
17.14800521496876,-0.21805018023954637,-0.048323506809975894,9.716564844507213
17.17317833994603,-0.22985420690928932,-0.0227796991781274,9.719793154155228
17.168144884535113,-0.22007816507518918,-0.03144588621891093,9.737741151446237
17.192875979582528,-0.16580108304679797,-0.02804074598065503,9.754042650508332
17.188277687061806,-0.07665581429902277,-0.007643563697983727,9.70813231458264
17.21258949428763,0.07511533839508855,-0.015736896306514946,9.703090543287818
17.20840804061434,0.22338792308756225,-0.03461154148698578,9.715725984618556
17.232310445374523,0.16517131027628396,-0.03802200520868077,9.672900610161145
17.22852924158945,0.011120006762455453,-0.03524516653957131,9.686848605597651
17.252038615801354,-0.08509923263893,-0.05027021434234262,9.748184950453517
17.24864090227715,-0.14018380989680723,-0.024562290025370654,9.746780269652987
17.271772839399645,-0.08377929657688418,-0.03108761151769712,9.698526689099154
17.26874422849091,-0.12939882072584735,-0.014259822944668774,9.695280763825586
17.291513767462085,-0.2318800762742451,-0.024195439736993757,9.769329718906492
17.288840863612116,-0.4591731335930332,-0.034408746591459136,9.712338821421188
17.311261475192488,-0.5111463970490391,-0.017845404738660132,9.704629311927466
17.308933251241243,-0.566807531142299,-0.029806529279877668,9.730110909706003
17.33101408268958,-0.6370112747611694,-0.04455561589549193,9.756858419193561
17.329014953278914,-0.7291328068797778,-0.02017761198796103,9.70924376816725
17.350769571529366,-0.6453141239689196,-0.032481398086907275,9.712553461012222
17.349090940492104,-0.5425742755927004,-0.025325117823732184,9.741687693775626
17.37053312789434,-0.5828927696767005,-0.02868291149877703,9.694588047800133
17.36916793355765,-0.7179663594654869,-0.02832898699589461,9.690988916457634
17.39030630329173,-0.7595795571618064,-0.022298380075400564,9.733971677344849
17.389236904701946,-0.7754462343460141,-0.03053711777575546,9.74341705586285
17.410081841565983,-0.6512820407195428,-0.030659158313223557,9.678579807831081
17.409303468467606,-0.5694909140595599,-0.011582935864303553,9.675459622059128
17.429863340935906,-0.5631641271202467,-0.015361151837957889,9.756272381166081
17.429365152675775,-0.6685770256324203,-0.03710998573228154,9.757064111935692
17.4496520026225,-0.6718604649244688,-0.04503821426969037,9.705968576253923
17.449423427510197,-0.5511604648624995,-0.008710579750059809,9.72635967022324
17.469441637319814,-0.44288549441297387,-0.020486594559440498,9.740641668529914
17.469474954074002,-0.31540655631757175,-0.017132607234316383,9.71559399518791
17.48923273677239,-0.2251670703092893,-0.014861302117396688,9.682387516463063
17.489521017216234,-0.18049153882571606,-0.010744704429707392,9.716624473170054
17.50903068276239,-0.11306533580606459,-0.04199519243714898,9.701485479903166
17.50956553401619,-0.029891819062426394,-0.04601562083595318,9.67084215380095
17.528831465572495,0.095355692014364,-0.02568511667495884,9.71115959730811
17.529604950566757,0.27202396663990797,-0.03710373257907229,9.721555758593306
17.548635095683927,0.39006044176183363,-0.04098792185654189,9.721492495877518
17.549643366455424,0.3882367028777046,-0.01563376506469897,9.696133099132425
17.568443745976133,0.40835289630841043,-0.0369266704820697,9.764018362940046
17.569674821768317,0.49117111082523635,-0.03389135659340544,9.777662265825136
17.588253864774188,0.6567801702258215,-0.0052699038506133136,9.705760797864182
17.589703591020626,0.7721181012502676,-0.015123686619120917,9.724817810033587
17.608066784983276,0.9065710038819289,-0.04087175889517193,9.706598676015501
17.60973293530797,0.8711007836211033,-0.03773600874046525,9.668026888859519
17.627885561318685,0.6829138266857753,-0.012578046660415308,9.683629317615187
17.629760275187056,0.46780599313164983,-0.015427398520610858,9.740626615568441
17.6477089351798,0.4138522898047831,-0.03218549974351108,9.75339341679285
17.649784868694546,0.40367612586263485,-0.030197448472125046,9.669409603691907
17.66753353992264,0.44517930161898395,-0.03255000272550935,9.712683221328314
17.6698081600336,0.36420048640862057,-0.047087555879583694,9.778375603460427
17.68736528733627,0.21182264490979422,-0.029308614217965136,9.742340365484562
17.689828332062284,0.10688618794739525,-0.01483859516264067,9.697567147476681
17.707196534283575,-0.04427245780413479,-0.032730236210870435,9.72487745708992
17.70984912034328,-0.05459932286446414,-0.038847771609159226,9.766694197182266
17.727031823850226,-0.21020867060644047,-0.02085182592764434,9.699316901355493
17.729866061456054,-0.3757088308171487,-0.02943359607499441,9.690857881425318
17.746867895685554,-0.545599236085141,-0.02368326447698238,9.709949132818968
17.74987616404538,-0.6808566083735869,-0.02295499583069528,9.687208283569966
17.766703396796327,-0.8996698676930377,-0.013234104015898106,9.686582968541698
17.769886363913212,-0.9912104747339285,-0.02019769795212642,9.709842606636766
17.786543413463264,-1.1950889512743288,-0.020696969957932843,9.741587891727665
17.78989404165889,-1.2926304756670242,-0.03152866662086131,9.694005141423096
17.806383421595974,-1.4370989212498995,-0.01935788928129123,9.700820327385552
17.80989988841253,-1.5377803812908126,-0.022507609993559767,9.745869514020765
17.826226485524714,-1.7644928173086596,-0.02479648040801957,9.74149439806845
17.829901621008272,-1.8786992334413473,-0.008887564981423316,9.691914870898403
17.846068349577166,-1.5679665211756832,-0.036745893107227146,9.717897465688885
17.849902576458433,-1.3579513157445757,-0.0238758276660034,9.773084594907361
17.86591670746896,-1.232478518372923,-0.059832492757719236,9.71801344473008
17.869903182497303,-1.312661273463333,-0.022329331054945476,9.691518383851351
17.885763439053797,-1.4097807755387235,-4.5175341059729165e-05,9.763878369864994
17.889899231433414,-1.4615939321958817,-0.023189995339565492,9.723430877057089
17.90560958331613,-1.3348048555164875,0.0013165433821425091,9.701301059638483
17.909890869569686,-1.2066456083358101,-0.01873429461433261,9.702708764502844
17.925456999108288,-0.8949996646787882,-0.04903200378416403,9.760422613840138
17.929883627754702,-0.763530026337865,-0.04094880198385665,9.717949744991438
17.945309605670033,-0.652629434108394,0.011838384570238928,9.665187951294666
17.949876712021883,-0.567144579616857,-0.024173109668667175,9.776400043488128
17.96516416972423,-0.32139597373902107,-0.04256319251924302,9.79091019045713
17.969867283334306,-0.13648980350516535,-0.035137462667426865,9.707303028936996
17.985017557774054,-0.013274977757313249,-0.047008480459200704,9.718986331946084
17.98985557677032,0.1701994041758517,0.0003315491837860726,9.695569398088294
18.00487217818752,0.4527111841916381,-0.019243766358642934,9.70099599564408
18.00984020952312,0.7258289977052312,-0.007406761084273557,9.676029580645803
18.024726173956402,0.8700007326276322,-0.03322511315151767,9.708999456639612
18.02982328538849,1.3008696981369001,-0.05509721567548015,9.706011265960495
18.044582429151212,1.3632833548452965,-0.06030530974505698,9.653265433196413
18.049807073998803,1.5064159118028477,-0.03422248619426862,9.727333085895767
18.06444418925844,1.5421515410575535,-0.005879173592325549,9.770791476738374
18.069792608359723,1.573944161479726,-0.04126662577202314,9.732495759260816
18.084303087618835,1.656938341993487,-0.019052700785756414,9.682868382025264
18.08977132366727,1.9237032645543615,-0.034079622990774584,9.723361548451237
18.104163030657293,1.7433243764014075,-0.04856487864765149,9.752139886301903
18.109749567122865,1.4130344347837516,-0.048962786100572114,9.703744397418285
18.124021655064123,1.2877437610018712,-0.06366984847606023,9.701091834491267
18.12972543052658,1.1899861892131,-0.04155797398739178,9.726676566534458
18.143885416956103,1.1016934826491294,-0.06894961192770581,9.681000196833264
18.149703218647975,0.894831444297903,-0.010664767839873305,9.69420985662936
18.1637475512516,0.701501798870399,-0.015588560412691457,9.717533444811986
18.169679595217477,0.47779561727172354,-0.03971629314941646,9.70131863821716
18.183615185266916,0.40749577222731975,-0.023282253651343007,9.702372472814753
18.18965624338314,0.20317037370071184,-0.02756763281211161,9.707750135607439
18.203481897564494,0.030323177585490257,-0.02878595507244121,9.7359030722442
18.209632630683263,-0.23693392678753705,-0.011301337963123628,9.753188630418618
18.22335400206285,-0.48172053296510103,-0.021173054391865613,9.697483092474553
18.229612363045433,-0.7610043083818987,-0.024398473844459142,9.688071438408485
18.243227089824746,-0.9106763346110187,0.039189797856978945,9.748224964893547
18.24958774705529,-1.2670451514730383,-0.03117999813391242,9.714031693601804
18.26309962399188,-1.4539861399860825,-0.01936848819168506,9.693350760547752
18.269562117593285,-1.5185270074890487,-0.015372362586014295,9.753077023104128
18.282970375992424,-1.875549071695161,-0.022019449251357338,9.734313621337982
18.28953275885212,-2.247106999064927,-0.02217147599331618,9.68764416022259
18.3028426338746,-2.549056796244845,0.011556082144962135,9.70967511567726
18.309503174863465,-2.6389615609187396,-0.0050151028337689744,9.726141180038665
18.322713950636857,-2.7987651687656134,-0.016194195288926825,9.742333472361807
18.32947267126491,-2.5945208376825146,0.004859036358996422,9.713420088212164
18.34258823983332,-2.139491022301887,-0.005336107299406001,9.73477908270824
18.3494415559722,-1.8637311318636434,-0.04552679095716503,9.694631720515652
18.362461634647026,-1.8571445275858693,-0.02687907657296778,9.67701543480239
18.36940822276145,-1.8230881717518121,-0.017669386127083662,9.71676934809846
18.382334287189536,-1.7926422383629352,-0.016064343355341102,9.764159171249593
18.38937180210272,-1.567225469117199,-0.016995404143115823,9.746446148752177
18.402208774576472,-1.241707277717345,-7.765819455530677e-05,9.702862773464465
18.409339372372614,-1.0873819788088517,-0.007423338772226977,9.743110416328989
18.422085865124412,-0.9825485883610249,-0.02059627307725947,9.742884850349652
18.429305373162883,-0.8222545007904151,-0.04642421483400772,9.718903935767196
18.44196452593395,-0.587106385575349,-0.030500467962523717,9.794669127388982
18.449274589085288,-0.3794678926984816,0.013247222410374375,9.698555370371379
18.461847882860067,-0.25533694805569596,-0.033518584341502004,9.721654228024162
18.469242175861687,0.023015257880885223,-0.010430695603367022,9.691192890675087
18.481728789608972,0.2286075993689981,-0.007859616535238862,9.672144731960687
18.489207881915952,0.48299350955153963,-0.01199322804494904,9.75127653633091
18.50160969865243,0.6948250710565224,-0.011375299999895564,9.738513824210177
18.50917373691753,0.9614015620140356,-0.004809802073357096,9.700504932338056
18.521493783191517,1.161061654112049,-0.04030373096143337,9.74225255664916
18.529140042223165,1.4189321789814922,-0.0487948154131479,9.7271000941319
18.54137674977236,1.715509853479573,-0.0004534251977187885,9.673967100390454
18.549102705034944,1.9177825169958527,-0.007179498770557915,9.690603364557761
18.561259460388047,2.036711468926179,-0.0384620022205933,9.741131710563028
18.56906586528189,2.024631722342833,-0.04496546472035694,9.718071254267612
18.581143295639936,1.9338644732239014,-0.0249811707100101,9.714978662859387
18.5890278414401,1.9203974019108132,-0.061730757225288924,9.73464816618993
18.601025778116874,1.7490193512655818,-0.0486776863638929,9.680193859342634
18.608987474887506,1.5140150558645982,-0.021008346531106573,9.651028035441948
18.62090728802381,1.3103799610967461,-0.02887115400922684,9.70736189644642
18.62894470096365,1.26345868016096,-0.029657698325126672,9.724144067041383
18.640789574028133,1.0812127480628035,-0.06365120532581843,9.691926693273718
18.648905830955506,0.7931619293457051,-0.027436374971199856,9.687366416724133
18.66067729630178,0.5515484458917256,0.014715650220642206,9.760132639959531
18.668866465180066,0.474087453136715,-0.05083066173083301,9.789785805142355
18.680562921343654,0.35266738121961066,-0.04967296558845879,9.699353930498186
18.688823429072375,0.24551253054011518,-0.04546662458219789,9.709504819605769
18.70044735408856,0.055253543511343005,-0.05539913137064047,9.750076706090704
18.708783642678362,-0.20073118606034054,-0.018276389123733996,9.707450344643823
18.720335870208068,-0.41765272170749296,-0.004957861028694325,9.713004125908865
18.728740172208763,-0.6443131661924527,-0.05610172814742066,9.717019021511534
18.740221817901368,-0.8329750460804815,0.004786602258143554,9.701150832793225
18.748697677139415,-1.1063352343856674,-0.01016294428356481,9.724110402223673
18.760108384318638,-1.3714509497868381,-0.009889054876090014,9.709071332649211
18.768653015279735,-1.5038438284393125,-0.015557448897296107,9.784180590698114
18.77999811544561,-1.679389818468053,-0.0395497644827389,9.736750806812505
18.788612492414458,-2.093568002657858,-0.020881063355982832,9.701435514010992
18.799888050590386,-2.4452209485250718,-0.02247500777475328,9.735257763188352
18.808567798577194,-2.6213722741108305,-0.005336364545588688,9.760979016799704
18.819774340345756,-2.784873851164141,-0.01470141383239178,9.713702682334489
18.828519863332595,-2.723916036901115,-0.0126792805346146,9.684103128574135
18.839661345245734,-2.255350738358362,0.013128498394400851,9.736074479809908
18.84847396522724,-1.8820506355238338,-0.0032835801266936524,9.739404395791725
18.859550492318995,-1.797804463638486,-0.0018458146535992018,9.685837417919148
18.868429892083498,-1.7456242617912001,-0.0023928820927036974,9.714929521190802
18.87944479349637,-1.8159891194553734,-0.023503619015433946,9.718098920050396
18.888387878196443,-1.7946352456288415,-0.041682583431003124,9.654218072126602
18.899338382461558,-1.4486719288042522,-0.008428325122774707,9.696436746597936
18.908344473696705,-1.1742494724837826,-0.029310628624457154,9.713251552152677
18.91923123494,-1.0334971408737719,-0.03008110768069839,9.735992546950946
18.92829922358523,-0.8931122865522011,-0.030697242777631324,9.713617405860031
18.939126400118113,-0.6950989117647909,-0.05197764498011859,9.716708159096049
18.948257596438282,-0.49487492404889355,-0.00405311314290611,9.742400506961586
18.95902036843179,-0.3303205074639196,-0.020247133338399163,9.71104505064701
18.968210762202443,-0.053968606108963854,-0.028159461550452344,9.717151241975474
18.978913907141653,0.19851318385319336,-0.014635477977447433,9.712818052251736
18.988165438546545,0.4116449353938078,-0.025449749456523042,9.706666077789453
18.99880773845044,0.6853278410802979,-0.0235818895588856,9.70063849392802
19.008115414561555,0.866379770450218,-0.00551812700044357,9.721760575795768
19.01869882095549,1.0747649535900685,-0.0202713471338728,9.727350821606843
19.02806949159999,1.3011610047136992,-0.057686853587669513,9.706691563093353
19.038594981506733,1.609985232491288,0.0003324240922898385,9.696649358824354
19.048020724598715,1.9002320503781849,-0.02591264200798821,9.725186566613683
19.058486606956134,2.035513679293539,-0.03870904489933062,9.72512713262804
19.06797376066255,2.0419169055982156,-0.04499556844403708,9.70700286323491
19.07838650657849,1.9617414815233678,-0.020804481076986195,9.676353035324142
19.08793219630328,1.9189822651189388,-0.047331064281957644,9.76192372177409
19.098289467862877,1.7883333599569764,-0.03650069549593449,9.729431470855616
19.107890190480415,1.5101568475205247,-0.02084752211622429,9.666501607422912
19.118188964352306,1.3037914588365889,-0.009914487163596622,9.7265597321126
19.127841745741424,1.2637680602056418,-0.03945277356447929,9.723020704974127
19.13808404324078,1.2248981928380045,-0.05381560331753326,9.637639463179308
19.14779067331038,0.9677428642531142,-0.03182876657780649,9.676112004954236
19.157977704388355,0.7001398602469562,-0.022246865151460123,9.752952826095166
19.167737805760904,0.537121360976894,-0.013566899506936445,9.717269314927872
19.177870604007477,0.3474854012415708,-0.008178796895158448,9.68972843272207
19.187685175539418,0.2636760445481317,-0.02696466795419189,9.716451533562934
19.197765042505175,0.10906628263129842,-0.0376417073222288,9.774328037582437
19.207633078684246,-0.147361584234253,-0.026357727727001522,9.692589044996136
19.21765861501039,-0.3634477583250902,0.004735892946181373,9.708352067118094
19.22757700985423,-0.5827180917669978,-0.04270022997223454,9.730117719929085
19.23754950772242,-0.7666018720855333,-0.0392449314252634,9.712442827489419
19.247517831959986,-0.9783933083027944,-0.010347370286775594,9.708165469148039
19.257439729460646,-1.285177235204294,-0.030244244926335997,9.711306633526267
19.2674627638908,-1.4518026296795967,-0.016635741818038185,9.725421452161187
19.277335413034315,-1.610902143496537,-0.03881187360315704,9.695030275262791
19.28740895421433,-1.9821413751459716,-0.011353410849233279,9.69185529659778
19.297230360444296,-2.395497601219913,0.008055271190154801,9.726142070440524
19.30735414895736,-2.5697661305360553,0.0018283938336453487,9.757515160635622
19.317125867030246,-2.7234486680773378,-0.029770271803685154,9.744723312279849
19.327302206801427,-2.7881321691821483,-0.03042013542278305,9.734731777808024
19.337024207158493,-2.399257544460123,-0.008818596682067864,9.78067850996335
19.347246618130416,-1.9488972466495862,-0.014630599966724825,9.720112949142562
19.356917909115683,-1.810873254017821,-0.03065037258141326,9.687440458419522
19.36719011603256,-1.7608742190609317,-0.029021834908744503,9.722949088146692
19.376814336352123,-1.7354279171557394,-0.03358276453511242,9.788559133653878
19.387135784528212,-1.7802308236434021,-0.024355048308902016,9.729395714094657
19.39671263041874,-1.6247780230623627,-0.013973333049457193,9.698330132940463
19.40708221973626,-1.2828986750489655,0.006865491461849537,9.736938492262711
19.41661068400423,-1.0376227718054754,-0.030794875034001606,9.689901816613732
19.427027593190505,-0.926832926616664,-0.019218865318787366,9.694956815073061
19.43650717016489,-0.7392726212995526,-0.043648607018910976,9.732590336783806
19.446968685026274,-0.49646057761664897,-0.007930876042774152,9.729569301522726
19.456400993643026,-0.34448630514638456,-0.007771975821048556,9.694247317088314
19.466913838268066,-0.14344401188124095,-0.032122703242581804,9.725950960152261
19.476303804884328,0.1071885223378496,-0.019199286319919365,9.73355195207919
19.486863319112366,0.3281260851167718,-0.0251684756168128,9.708758037971092
19.496207242223107,0.5882836667648148,-0.02053016052512359,9.727745456683621
19.50680907845213,0.8129331452551487,0.0006150718776405935,9.739361632253244
19.516105036940335,1.0151094000642158,-0.02644516590704991,9.718857086374879
19.526750519332076,1.2411418150730535,-0.04771899720554102,9.706960580989325
19.536002119041388,1.6289977063656613,-0.03070263646804126,9.697159737963249
19.546697344810823,1.9383004018341585,-0.03230308195586908,9.725054123794887
19.55590802611241,2.026016039652985,-0.0579591499383302,9.68007163427198
19.56664799103554,2.024259331619231,-0.07288690580840927,9.67246313283094
19.575815585535583,1.9238495584313455,-0.03618027151209139,9.6781043183033
19.58659924375419,1.9782843959627514,-0.058537514054279066,9.727196217715278
19.595720076890608,1.871739007912198,-0.061284288782994946,9.727906996137897
19.606547044214786,1.545633170049962,-0.018276551915062125,9.70273625592951
19.61562379317173,1.310206133243215,-0.009820426326032817,9.760508188471505
19.626493279750175,1.2583862283339204,-0.02214916449712094,9.775092360446953
19.635526738942662,1.2008115640244958,-0.044252540372354286,9.709183557470999
19.646438971141855,1.0532566713904312,-0.04660609553965291,9.654112082305469
19.65542667931927,0.7687676074244971,-0.02968001142292754,9.734194075013331
19.66637750814973,0.5619246428068035,-0.016831776621288843,9.733570186617529
19.67532422676808,0.38920172018325755,-0.03773753301766273,9.713820270202305
19.686317525383924,0.29960740495971266,-0.034166594508467305,9.699389487464781
19.695222192149988,0.1469292787423629,-0.04837438157423828,9.744095692675938
19.7062596146228,-0.08195821519643322,-0.03308463873775618,9.669474763837831
19.715123718211608,-0.3173465922816584,-0.007348773761967515,9.679227697879796
19.72620134702465,-0.5259648395766434,-0.030076823633660096,9.78017649440629
19.735022681239826,-0.7649278073643726,-0.05160711358220288,9.714096154609733
19.74614152608978,-0.9871727212990642,-0.007983185712148542,9.762276004928438
19.754921777843983,-1.2728958315826178,-0.03545428999092884,9.737943624178184
19.766081337321076,-1.4071534455080077,-0.01123206718649927,9.762168673331699
19.774821687951846,-1.534318784052802,-0.0332085374513141,9.732808754818798
19.786022383495567,-1.9509160239683512,-0.006289746530484302,9.678361586802156
19.794724607259553,-2.375851479366588,-0.008604314660667453,9.730169386894222
19.80596781773517,-2.573652348236385,-0.006426551294869927,9.735306089820387
19.814629345842704,-2.6909888808955422,0.005448358914542383,9.727778363304767
19.825911235065913,-2.7723524966409436,-0.017849727080964953,9.69799996383689
19.834533559401756,-2.4624757827410484,0.005248266735609775,9.738589813226417
19.845854404588707,-2.003835658950121,0.00039085009023173646,9.698911380142627
19.854436551390044,-1.809120099890075,-0.013388990541129516,9.664992181957398
19.865799136074887,-1.7767335385744343,-0.02926911126205688,9.720386386620483
19.874343125544506,-1.7587573267670096,-0.02160567425006136,9.768655894655986
19.885744548853122,-1.806700933589825,-0.00404215230179042,9.71853829671082
19.894250302941423,-1.6952174391140855,-0.001332439010562579,9.699987144785394
19.905688977979956,-1.3451592918938664,-0.000338564888258638,9.768687458054854
19.914152756702727,-1.1142719183867307,-0.03228406283057777,9.7760993660678
19.925627224082017,-0.9535218210261615,0.008116101363838326,9.7255894859722
19.934053275076387,-0.7597673117065088,-0.05470802089433633,9.776402405155686
19.94556680299105,-0.5097604370352922,-0.022678786906629337,9.72022643947389
19.953957363108213,-0.325818275584498,-0.026490545041372503,9.678440576219785
19.965510881496417,-0.11330704485299999,-0.018632856014240664,9.682546768567127
19.973864411075088,0.11454284107303675,-0.014514756130154282,9.703773934948988
19.98545334693671,0.4140199978696177,-0.018551260536222455,9.686323039044881
19.993766953314314,0.5610327290224568,0.002517704095830479,9.669759567376888
20.005395214811127,0.6245216480640559,-0.004497382939840855,9.71445325574642
20.0136721300863,0.9114597963532087,-0.032240788911438736,9.7287084170917
20.025335025166925,1.1800606870108032,-0.0634545193144134,9.721135780483563
20.033574599316132,1.5789785362282918,-0.0482796023406663,9.735229659852822
20.045273477035085,1.955462850398231,-0.019267592818152806,9.694271183326796
20.053475780223767,2.073364672194855,-0.05475876720270063,9.735888614827042
20.06521228403829,2.064206264717011,-0.055276191548253445,9.680739299975924
20.073380149325434,1.9649762095827648,-0.026282738976436,9.695414872789858
20.085152918911817,1.8894851346629216,-0.049739137324319414,9.74286175392516
20.09328360013847,1.884924339195398,-0.052196319290509115,9.628388492060065
20.105091988916275,1.6565041757453216,-0.03954202896407848,9.677281397812877
20.11318883065171,1.367450944769379,-0.0456242102578788,9.688264420595445
20.12503434913099,1.2488755468377175,-0.027596662243968707,9.7246462705894
20.13309400593293,1.2118235661274543,-0.044247636992864145,9.684346129538941
20.14497494339705,1.1010184931967566,-0.050335374681622774,9.631996887840744
20.152999143664477,0.8432714108050611,-0.03316116516760567,9.744787788378233
20.164913379881334,0.5858577045620861,-0.028718195569632298,9.751531517647468
20.172903244928747,0.40621014374303677,-0.01721964516337115,9.714226153798643
20.184851923515264,0.30209124621235517,-0.00855220454008945,9.748043781679385
20.192806176704902,0.19116391933139534,-0.0199456351918969,9.771566264788396
20.20479153042582,-0.03857966025308167,-0.04287879656299367,9.696276243906487
20.212709831483615,-0.2500725898333099,0.0037026937893431056,9.716230799196621
20.224728009044867,-0.5449325327668849,-0.03336751692567271,9.749798400717081
20.23261152323449,-0.7621355004155499,-0.05592512888784984,9.698958537724295
20.244665895070455,-0.9570648621263381,-0.011800718066835133,9.703305513412335
20.25251812567709,-1.2362890715629111,-0.020676327666349588,9.685030655028317
20.264606729855284,-1.4097271703206335,-0.005918069804374004,9.711504381240756
20.272423551195068,-1.5271754084583145,-0.023955524778859667,9.704302525896988
20.2845447281973,-1.931099799268805,-0.011805004710673415,9.67222481661194
20.29232851101569,-2.367689805206235,-0.0007239580271794522,9.71759870109303
20.30448634192346,-2.5970158547214397,0.0033818041570862424,9.741639038917237
20.312235530272652,-2.6847308733496487,0.0003787262375574561,9.728856022936824
20.324424122700957,-2.8232087123180287,-0.009560504712613271,9.70855956513726
20.33213940557261,-2.536213602115963,-0.003172950193250599,9.756123162222647
20.344361674617808,-2.0547896240451373,-0.006621364978241791,9.745629329629123
20.352043772824537,-1.8454537216056384,-0.005578246335174607,9.705686969955588
20.364299725650323,-1.781741962482625,0.009684323903116273,9.744710064168281
20.371950132282876,-1.7138461719072928,-0.03411102331372765,9.738035803113155
20.384237864842248,-1.7662245667756717,-0.01064624567579835,9.697310762876683
20.391853693596158,-1.7443293332892955,-0.0161735199769604,9.68369812444386
20.4041751412863,-1.415629607523015,-0.016911008508698387,9.68267458975954
20.411757148064865,-1.1493756312807257,-0.010024782330924733,9.725024202661608
20.42410731317888,-0.9818949069375839,0.0046262341828439656,9.608599732254392
20.431655717231266,-0.7797389496931605,-0.03166475619942584,9.72599349263221
20.444041415175395,-0.5418493167579082,-0.023842608500017678,9.7248847631076
20.451558809502178,-0.3748549448481384,-0.02566002349347797,9.757843527144509
20.463974002474433,-0.16734331000712077,-0.042816118990727646,9.782485396743448
20.471459071939204,0.05388615597994193,-0.01366088469484804,9.768634574394786
20.48391014704463,0.3060695323120723,-0.04060865555242578,9.741031160261139
20.491364330004217,0.48518057583801505,-0.02519398155836809,9.750916191694214
20.503846914999148,0.9351917582968222,-0.03129444826534588,9.732477462745239
20.51127125369367,1.046670216877296,-0.016339289227294933,9.67004269906382
20.523785883190044,1.054126027894444,-0.0588532153358981,9.743847977833779
20.53117809221492,1.4520936514095606,-0.018934749004633288,9.714112132688744
20.543723942584077,1.8249954524328158,-0.0076519532197693915,9.712988744662965
20.551081998323987,1.9954644594052358,-0.04586286813461643,9.724207218940196
20.56365612828185,2.0705394255560474,-0.021678488347975543,9.709680875037051
20.57098369728792,2.0175062722012447,-0.009780749034557975,9.69970635100282
20.583591231447233,2.0017488331101574,-0.040023470250533544,9.756914312024083
20.5908882949561,1.9574088246700143,-0.05146247705053015,9.742064512068097
20.603526736469984,1.672612308227194,-0.043760040972205115,9.704914571145736
20.610793860021836,1.350695845192617,-0.02655719883166357,9.720538093719663
20.62346089653096,1.1816903728844934,-0.02742268119325069,9.739775689936913
20.630695200006294,1.189065276886485,-0.049772446624980746,9.736344388564055
20.643392472481143,1.1403296411631516,-0.03039017757619621,9.648741804027164
20.65059419623463,0.9297121965809699,-0.021149164237422687,9.68804339209199
20.663321729919545,0.6257861540440246,-0.01353743425359981,9.72461663049651
20.67049415301053,0.43499118375679013,-0.01692381542188296,9.715022132530466
20.683253606153624,0.292852615820954,-0.0127297544108486,9.700820435841342
20.690397749314773,0.17916588134648875,-0.030384297101586227,9.713664835036942
20.70318977802021,-0.07263927510079392,-0.03422464556527009,9.716649451133732
20.710304311678946,-0.25675315672527144,-0.0005833617689647697,9.725372168378401
20.72312447416253,-0.5221949440328176,-0.004202177328798523,9.73285515532195
20.730204848919463,-0.7307554634261334,-0.06117183894397874,9.701519881352457
20.743055721518974,-0.9737599521713203,0.00584547583470612,9.761205410086411
20.750110008025207,-1.2471287199697292,-0.010071380472372441,9.736240947091938
20.762990386145592,-1.4550288551317896,-0.005111661345478489,9.750185130688871
20.77001320210617,-1.5642450524395235,-0.011658583055845788,9.764080385855788
20.782924239612285,-1.8953881524354739,-0.016443591128437306,9.710993265254743
20.789918577212962,-2.3014776880441516,-0.0004310968747559552,9.73072005428706
20.802858991994867,-2.5632964209959357,0.014363482806041395,9.718709956147945
20.809823183334498,-2.683669719677155,-0.00013299463621707427,9.693153451837071
20.822793735832303,-2.8523877225695267,-0.00379172458802304,9.705799707021676
20.829730831187856,-2.6434558436309605,-0.016372427746098334,9.711071163026359
20.84273213434826,-2.1506023895729878,-0.01765343907706139,9.735769988826885
20.849639046232593,-1.8604230518326925,-0.033548402987390646,9.669283234101325
20.862668876137,-1.767517546297916,-0.020198995938215523,9.700796439080584
20.869547304190373,-1.7115906029868824,-0.018595149471422903,9.763702881986408
20.882605000660046,-1.7664120475616092,-0.013517080988732397,9.766686009174641
20.889452208387926,-1.7085987071964228,-0.03833232266670826,9.708660909118661
20.902539429654322,-1.4737220858825906,0.0008838290291238076,9.712622416558114
20.909357781562854,-1.1856823541106505,-0.003813483232956926,9.798237109244766
20.922471150011628,-0.9846725520135747,-0.0031493636466693154,9.700473255335263
20.929258102528653,-0.7774576253893788,-0.06283298237840575,9.729619864307807
20.942399632936517,-0.48069746126226603,-0.04502547790011021,9.741493712889577
20.949158097577016,-0.35196630934004397,-0.00904013400325412,9.696253980083728
20.962328105645746,-0.22907990366798944,-0.007003489873251968,9.721856373770075
20.969057213388897,0.05366312051544372,-0.0023027595871298154,9.67301771523314
20.982254973118536,0.31249763144646076,-0.03294174952670474,9.702507483385597
20.98895658469053,0.597878198960238,-0.03976554448532687,9.697824334803808
21.002184199085345,0.793500140512571,-0.004582680998311244,9.68610845313785
21.00886086919369,0.9889040610202537,-0.004542764346491749,9.707497468688494
21.02211845233311,1.1974066627026771,-0.04686154144032069,9.746165917557791
21.028764413858095,1.5549248492611782,-0.04572571833619972,9.710197531443628
21.04204842746177,1.8401492625347302,-0.007543123709336635,9.68674626694532
21.048666248095838,1.9802172304917782,-0.03948113679844586,9.740743677701973
21.061978956275812,2.0520976794045254,-0.039314714954169175,9.712968783215713
21.06857038250666,2.007548885947624,-0.0104992094211945,9.719942621045139
21.081910178709922,2.063440244371228,-0.037512103815885885,9.715137463518753
21.088471925908845,2.0104209098517134,-0.04639640574340395,9.756864238997437
21.101841432569028,1.7449456426983212,-0.057880313664118145,9.731420255910654
21.108377564620262,1.4631127250858018,-0.011351416583802433,9.704917102186732
21.121776520088968,1.2209998756564593,-0.0051954528316057605,9.73205402873047
21.12828429884841,1.154049464290143,-0.03225133226427778,9.735408316593285
21.141707075472098,1.1036712131305177,-0.04781988699708595,9.645207199716737
21.148184977311846,0.8943545408725396,-0.024976464089301847,9.699489582156952
21.16163864264525,0.6246206295963275,-0.0319055727483482,9.774830407974527
21.168090301080326,0.47147833511875253,-0.02674442559876237,9.760502726263704
21.18157015652214,0.3194566263392586,-0.027989091104565305,9.782889950695058
21.187994425238674,0.1869162610855842,-0.03605562250832509,9.735078067254602
21.2015028092338,-0.07204086418677136,-0.03788989720920712,9.776309160848092
21.20790301431511,-0.33330561852753043,-0.016307482814355827,9.683164107016598
21.22143770479675,-0.5398762940036291,-0.013256521265559438,9.723777653108788
21.227807529350887,-0.7255370882187121,-0.04854496242340142,9.68762859425326
21.241369857767303,-0.9615425562325974,0.010109417499774979,9.742072732450287
21.247711208572074,-1.2370674509613089,-0.011419901159655082,9.701087320108167
21.261300454455174,-1.4591926689798096,-0.016755905921427533,9.666440082598523
21.267616973381145,-1.5822667342483039,-0.03685821228147086,9.717497031956894
21.28123400936058,-1.8968725815935186,-0.03127054888002498,9.682015569608403
21.287523665440382,-2.286242195026409,-0.0034058041179128875,9.717390751845937
21.30116802924639,-2.519071110236753,-0.0077172780374511075,9.736942398588141
21.30742730571241,-2.6714012895090344,0.013197308322875915,9.743338393799053
21.321095765685904,-2.9045411429127403,-0.021832034616944388,9.735243252810765
21.327331161916927,-2.7257402407762084,-0.021874554034373692,9.75834657790728
21.34102905780111,-2.1681234318320257,-0.023227537540886942,9.791620200105665
21.34723843155608,-1.809838259253398,-0.019794222365635297,9.726710543528661
21.360962132659285,-1.7086595169364147,-0.0343370647397293,9.709158845748199
21.367143521099976,-1.669448661017669,-0.024898789080608913,9.751906035794322
21.380892904100918,-1.7094378927290506,-0.020448872275782258,9.796298664544572
21.38704698662899,-1.716553187711643,-0.06540227092906678,9.731148411842419
21.40082398089783,-1.4737515853986254,-0.009125235106282452,9.664180869246769
21.406951619230195,-1.1724960187186464,-0.004427517907393003,9.740661422022669
21.42075460745145,-0.9640367760360512,0.006844070572100036,9.666051098510234
21.426856301139843,-0.7877808304892657,-0.021796795273618386,9.69750343307979
21.440686925679305,-0.5945453435944564,-0.025891564557289127,9.713318629367413
21.446762749139054,-0.4171299983778755,-0.00595658726453359,9.719588477339817
21.460618686628663,-0.21767857051899178,-0.05090002062937738,9.740481734487192
21.46666608836903,0.016687180370798,-0.039593866599961634,9.713740588979048
21.480548777975184,0.2623587347164517,-0.040763026120479974,9.743725528916169
21.486571531149878,0.5888452350179348,-0.02938103173211053,9.72962199762856
21.500482382241934,0.800477396372187,-0.016302479734689318,9.699334150827688
21.506480709594523,0.8894436026177412,-0.019963668905040928,9.720278423750198
21.520418058203337,1.211638613369203,-0.041838711288735154,9.76705835844797
21.526391977552542,1.6299559946446223,-0.008337113374421947,9.785048259881783
21.54035631604809,1.9045686373181354,-0.02149436454524155,9.679845303005667
21.546303740798177,1.999076239785745,-0.02961191084369035,9.72003059025746
21.560294099103874,2.0418802585948046,-0.023835522667666253,9.681028328076646
21.56621334073986,2.006724884659461,-0.046201987527008465,9.687273128956555
21.580227014354392,2.026167980741084,-0.02964093658161427,9.682269110782736
21.58611933100789,2.0776290177526735,-0.03398280393390251,9.661636097336578
21.60016054596277,1.7655351592629414,-0.042959480321904935,9.691605260343385
21.606028096236308,1.4525631830555867,-0.04018248626795264,9.668564464090718
21.620092896702012,1.213199453926619,-0.034787208766058036,9.74747353892931
21.62593267318209,1.152695908506035,-0.05859718020966058,9.769748806588197
21.640024015819723,1.1419671459920684,-0.06308817642823464,9.699841099611968
21.645839144485898,0.8989498945071536,-0.023474333152123703,9.662632363316455
21.65995769474761,0.5944097741229596,-0.01116249064140778,9.738970145000687
21.665745587886022,0.4723390432219229,-0.022960227610248556,9.708464155841838
21.67988758179535,0.2965755311089999,-0.023580370707752447,9.692434902247667
21.685649843966104,0.1441747104908392,-0.015970433026890492,9.675665833154614
21.699820095121378,-0.026871451530550077,-0.02772184283759743,9.716764119104594
21.705556634469872,-0.23283365224805472,-0.00430056288223219,9.704518836765565
21.719751066636242,-0.5005370304840707,-0.014695475378229437,9.720411379306988
21.725464191817515,-0.7371171886125569,-0.051119828632121514,9.658867376054781
21.739684819336528,-0.9600374435405923,-0.0048153907001530355,9.736791462944268
21.745370665917157,-1.2377671497158171,-0.01817915477735478,9.730793268767721
21.759615394049053,-1.480182416775302,0.009247914183698367,9.706133373787384
21.765272453964705,-1.5525918218278103,-0.026699148166621004,9.767058076644132
21.779541884724285,-1.874086803278569,-0.03625959713393425,9.758981573910026
21.78517631953555,-2.2618587776512715,-0.02589219839901872,9.7458934577202
21.79947433919453,-2.5366510602918,0.00862787990449256,9.751165478585706
21.805085027907023,-2.6673542462857553,-0.01396671544502425,9.767005886639007
21.81940636859003,-2.8357877868316446,-0.011739551847913143,9.762383559323473
21.82499094336749,-2.7273940862776813,-0.005562588586960509,9.729433235182954
21.83933770283392,-2.206300357942136,0.00442086663123838,9.740769998684733
21.844895455045968,-1.833358638800174,-0.01845827558008521,9.711911275712065
21.859266846507282,-1.7133507539740498,-0.014662924174591245,9.694964175131787
21.8647986298418,-1.6899429481566448,0.008994319213794103,9.678487875548536
21.87919822186785,-1.7572567056123276,-0.006246016360376302,9.72258323025897
21.88470649921315,-1.7846363280848143,-0.03891214814158275,9.695532830863181
21.899128948429105,-1.5501947682944395,-0.028200561413340007,9.648341420017061
21.90460964553695,-1.1953448328827332,-0.032247599459616895,9.769969274052544
21.91905740969426,-0.9899271761796739,-0.013199337563814504,9.735017864388638
21.924513796341422,-0.8192461055370736,-0.039947673969803615,9.763093952634
21.938986309647817,-0.6142244125309739,-0.030317491541079114,9.746907072487424
21.944416983458215,-0.4035934557069504,-0.014149448198407046,9.715286129611677
21.958914972331232,-0.20758859163989862,-0.04800275792792745,9.793118168158983
21.964322414822355,0.05206988057529124,-0.0386157935878883,9.681526254684124
21.978845888497062,0.27984055614611686,-0.028412040360561473,9.703425419483985
21.98422791138116,0.5526097966890336,-0.029455397472674057,9.709761591089755
21.998777624853613,0.7656845220828812,-0.02459273576316292,9.72841022905343
22.004135543322143,0.9742124628376089,-0.02257140914513097,9.678787769850965
22.018713008504932,1.2572572512755043,-0.03787147178874284,9.691395422703607
22.0240463029355,1.5256821325073622,-0.042125218516736125,9.71914312115489
22.038648245926748,1.8153474440330737,-0.03170253553184901,9.6673706234162
22.043955797036475,2.00149827650436,-0.03873077531606612,9.691212569617997
22.058581274767782,2.035690550325415,-0.053399174671737916,9.739235221596546
22.063862479485675,2.00842976009523,-0.04880796255480148,9.736184161439255
22.07851166249085,2.0599197576331942,-0.04385439320436486,9.684135387627823
22.08376802910788,2.1081701880498223,-0.03123088186256762,9.714856610518183
22.09844481648167,1.8103454730953914,-0.05775633453593687,9.742609256509354
22.103675616540066,1.485806152774621,-0.03437693408461437,9.715261404716422
22.11837534287856,1.2367593278779818,-0.026396576308447165,9.73355887554593
22.123582572936492,1.124360539188448,-0.034210913181634675,9.751776568088918
22.138306678100296,1.0780337381600236,-0.049835185903808164,9.680824015265165
22.14348783594926,0.9817948699193212,-0.040972518375170894,9.64129667646369
22.158237153509667,0.7196822981601357,-0.05098544171291947,9.738015201089793
22.163392726014585,0.46847783091620154,-0.021832082232473415,9.727213115811427
22.178167230639904,0.2934646581952701,-0.029176985988751705,9.706888484257906
22.183297694643578,0.15163478152890048,-0.02556876220211821,9.678219792041963
22.198097669862506,-0.07049691583413585,-0.03773989947378453,9.699169780972197
22.203203356397356,-0.24349134111267492,-0.029536522928957677,9.703005062749796
22.218027268544798,-0.4749001031879853,-0.03431892138128642,9.755040674401283
22.22311170123574,-0.7257115982268243,-0.04900239932558331,9.710838433848899
22.23796464074744,-0.9266841522705291,0.01994563049087411,9.759086389103105
22.243020429244797,-1.224151236877261,-0.024645008400839906,9.747914949640947
22.257892036626266,-1.4603761302014402,-0.023095145466031967,9.73051796831267
22.262921424908214,-1.517347255663382,-0.01726746549488719,9.73710528649957
22.277820298086557,-1.8608371798291161,-0.02502908034049347,9.71593292854186
22.282825470845065,-2.2632482997937453,-0.03745409006828221,9.746077544036336
22.297747825930493,-2.495920680392222,-0.032634745446949116,9.671937874576981
22.302730047376635,-2.6525142248353526,-0.011863888953344972,9.686041661314952
22.3176809730996,-2.822897839512318,-0.024850089066558126,9.687244608516513
22.32263901483588,-2.785009628041576,0.004101488186646299,9.67741760901402
22.337613073852864,-2.29614406527837,0.009209250543476084,9.73356710748112
22.34254498434309,-1.8317835801580014,-0.01642474825307743,9.731826467956052
22.357544178581566,-1.675806478885145,-0.0243226698286566,9.720073968721806
22.362454011095974,-1.6992650049827116,-0.03068990418215621,9.706328948311949
22.377478489294166,-1.753622908958208,-0.005618920667752046,9.773503476149479
22.382363440351668,-1.7985474778219535,-0.03625874362738036,9.82517276852009
22.397415287560474,-1.6004155279706134,-0.020746849788236578,9.717675638639683
22.402276025654896,-1.2579647105519889,-0.015130662261316229,9.727591029086895
22.417351963771303,-1.0095590283698752,-0.029502604444442467,9.700479222548946
22.422186846129744,-0.7979586354007435,-0.04756703701350137,9.707380900958494
22.43728767434461,-0.6220126029837502,-0.06122946612014052,9.7037041162004
22.44209892618697,-0.42162939368082875,-0.017101515718575835,9.653977260504007
22.457223430972068,-0.23077853196741707,-0.03185262495226093,9.74781796950236
22.46200825477982,0.01275744773985334,-0.04309806162797788,9.684233482179184
22.477160365715868,0.23272700499703064,-0.020247946509102163,9.683714848834152
22.481921419682283,0.5000618515394569,-0.027566485165957878,9.742538217536984
22.497096042682248,0.7375903611844962,-0.022714602640343598,9.734459686490053
22.501830034954917,0.9531416219212204,-0.02737641601668706,9.729920044161437
22.517027552879497,1.1238015014467655,-0.04619077316027291,9.740600029986798
22.521737942293182,1.1369503200349955,-0.05541675356026179,9.755854671810491
22.536960604384827,2.0581540406217353,-0.007258503835446486,9.713357336135825
22.54164309463695,2.3810267312974958,-0.044928767547093185,9.683002456499619
22.556891130119514,2.0390749872210745,-0.06670542540375628,9.712639683001456
22.561549652011188,1.9484245822879251,-0.037301190336792425,9.746911108485094
22.576824103402256,1.9393459615827557,-0.03284037431476462,9.741490631644814
22.581458345577246,2.0583864238962226,-0.04529852066255449,9.6689460339432
22.596758223355465,1.8553471323322115,-0.05060917587521079,9.685066684913144
22.601368265631656,1.5246232943115445,-0.04740501518903922,9.667574665044885
22.61669071283893,1.2646056552344338,-0.024604113041835796,9.697375559131803
22.621275349622607,1.114865839509744,-0.028336307050368183,9.74215512764793
22.63662400588493,1.0789904919303845,-0.04777317240160641,9.731629885800164
22.64118394121191,0.9522741311829194,-0.03424107455848193,9.683023515554877
22.656557217113825,0.6954770973651266,-0.031170775805166636,9.718384921168079
22.66109232219292,0.5134310000039328,-0.003692819697533147,9.755136600592213
22.67649134209892,0.41913084395005,-0.018424121351348365,9.777278068244401
22.681001928562615,0.2119909145819965,-0.0325591960180563,9.718840420042905
22.696425385415765,-0.032302468713582964,-0.027279307592788078,9.736274904069546
22.70091394947475,-0.20669070517634056,-0.025890081402244313,9.741344341697841
22.71636179160601,-0.40891148765669694,-0.004300016020101449,9.742572562451745
22.720823067186075,-0.6637763068724981,-0.056156335475352634,9.663132685133403
22.7362981754724,-0.910083655935055,0.02524816313665559,9.694644403427949
22.740733106199,-1.1876463145711948,-0.0019023846903251057,9.7051921601482
22.75623094397865,-1.3963771018446791,-0.035662142524977625,9.668501087099669
22.760641041377397,-1.5317829583432545,0.011267483398893876,9.722993448915169
22.77616461604939,-1.766950352096886,-0.01439334989164799,9.745061823592925
22.78054841545553,-2.159732248806469,-0.005435607530695553,9.724955039866737
22.796095313823127,-2.4977982888562353,-0.019763584271413333,9.715604647531785
22.800455954966186,-2.747418872869539,0.0003316351904581019,9.736545008104567
22.816029864836356,-2.8359384170237276,-0.011780887016821933,9.782776140361847
22.820363424429523,-2.804345577809063,-0.019325136316799368,9.70500254942672
22.83596170576499,-2.3315480527487287,0.0008814190901962783,9.69413822468398
22.840270396867876,-1.886188472392074,0.0011539035301078072,9.673352810256231
22.85589246556326,-1.6871688011901542,-0.008626927844507673,9.68441850227062
22.860176209595956,-1.7188534846723063,-0.017686976356985826,9.699804258870541
22.875824511268956,-1.775943653169472,0.017963198146491055,9.702776078509158
22.880084349869204,-1.8299901829656098,-0.02602050328675604,9.755751559531571
22.895758470958523,-1.633572834005154,-0.027083230552740905,9.710395032395201
22.899991742007863,-1.2999054923246243,-0.010690556558266623,9.716448273883776
22.915689518825655,-0.9929102095695067,-0.014660879163788582,9.732890881099198
22.91989645684687,-0.8411675979889622,-0.04210989469807395,9.737804279239864
22.935620604786465,-0.6294755246576177,-0.04242918827971659,9.746046074888515
22.939801899685225,-0.4517730161689109,-0.01130468878541168,9.708725342746014
22.95555044250135,-0.25675721563460774,-0.03442935733225858,9.731274812022814
22.959706525390715,-0.00904910486849145,-0.04244556959732408,9.727656007718831
22.97548180395416,0.23760873978358418,-0.01562077376285384,9.6757382159888
22.97961336203919,0.46594698629716236,-0.03503382290041928,9.704783189142436
22.99541512368707,0.715396384083692,-0.04069695057532137,9.744972300653817
22.999524291812047,0.9106287541143643,-0.021619750554581457,9.711386504456557
23.015349384981768,1.0990469375311285,-0.04750880203234111,9.687807314958334
23.019432016049088,1.4009025490255063,-0.02130656013480127,9.750419510869511
23.035284992623264,1.7483023230283046,-0.00623910338690693,9.69607650347372
23.039341326726436,1.9753981177113986,-0.038869164585068304,9.68459406776576
23.055218226398942,2.043039303526847,-0.040910330920902085,9.708876305345319
23.059248735328417,2.0333889463626487,-0.05849902636599707,9.730640339669838
23.075152841448258,1.9897900156993744,-0.02503393097906841,9.692052227271008
23.07915860896066,2.0693405886611846,-0.035963015600443675,9.714506047485893
23.095086744686082,1.881159874418683,-0.03991587762855106,9.735711802166959
23.099066661153266,1.5329658114207827,-0.03612219014563665,9.71628995058335
23.11502065520324,1.2836413801335733,-0.03280364428518189,9.704811653690612
23.118975328406286,1.1391648091081255,-0.04354346049876978,9.732427602405837
23.13495662575931,1.121299754088638,-0.06211384962779732,9.711528947458325
23.13888748052015,1.0099375371187138,-0.03754111955523829,9.667681465932148
23.154894525789764,0.7537436126371254,-0.0374010364300982,9.689241283289617
23.158797092231552,0.5156950979647714,-0.019513969877670307,9.723857365261141
23.174829127895126,0.38941097796451624,-0.043316764905658306,9.738732853143834
23.178705068086515,0.23845082364289638,-0.040014460874974074,9.664698483708547
23.1947642972783,0.017729422290009712,-0.01838436732789709,9.70739242995118
23.198620204146252,-0.21390783446366085,-0.017382417089124476,9.726095957216456
23.21470529515517,-0.4591095809152728,-0.004861861449552874,9.756109284232753
23.218530451158,-0.6597310269268571,-0.036331171400908475,9.745856519516321
23.234640300501034,-0.8651113201834082,0.002067491621952163,9.72883269883514
23.238438898726894,-1.0944020524510485,0.010617086306798066,9.771593120199329
23.25457274443671,-1.4153591121378581,-0.004277627847654143,9.715074444546186
23.258344977847944,-1.5279125842650965,-0.008743983394488496,9.744099159830425
23.274507087315545,-1.668410169853579,-0.036523317868817004,9.722363602614617
23.278255783410685,-2.05592551646189,-0.027611269019432075,9.736616432901183
23.294443022110126,-2.452078329603593,-0.009343206002032135,9.717826042799764
23.298165289649464,-2.6227892261444072,0.0046424897679248935,9.691126927260592
23.31438080714692,-2.804794848838974,-0.037598483328866124,9.736160155192605
23.318076785176146,-2.876396227076716,-0.022724043931936135,9.821873501783076
23.334318227298123,-2.4401453027230176,-0.0034270129122786165,9.735007384361746
23.337987118190025,-1.9289594432887947,-0.010767634472138868,9.753794312003917
23.354253867693206,-1.6697741741608283,-0.02755180894766588,9.713141261585585
23.3578976626688,-1.647039970002409,-0.022058488209853473,9.720340342186288
23.374193520547497,-1.709523760200818,-0.005937994604240028,9.707006470604597
23.37781127985267,-1.830371712793786,-0.04439391148622483,9.783410816137305
23.394132836071183,-1.7219482148370489,-0.023212660898776858,9.715732225054527
23.39772501968267,-1.382751698022994,-0.0016731343958324156,9.707556543723657
23.41407281533572,-1.0328539339969551,-0.011026531388076142,9.747012492117516
23.417635874104672,-0.8570595750932396,-0.024190549260895068,9.699290319446986
23.434008737509558,-0.7219559348923505,-0.05171178597489013,9.69531973523251
23.43754686514987,-0.5552052362708568,0.0293697998400084,9.712865163131163
23.45394903385652,-0.3428509142563787,-0.021622719907575447,9.733720077336558
23.457459042461185,-0.08264447396626977,-0.044148092671689516,9.72364879144991
23.47388492992922,0.16166327116013826,0.003804266692211365,9.686237891931887
23.477368495528584,0.41334919936464315,-0.02327980721969713,9.727565505340873
23.493822349603004,0.6684279509697635,-0.03749297329125426,9.73964215857976
23.497279887508444,0.856507899158293,-0.014944992054609656,9.703394874046756
23.51375990185151,1.02044123828913,-0.0336235256013861,9.721770223344635
23.51719192866672,1.3362636795730058,-0.05631989684601617,9.736045749230826
23.533702117577032,1.5240797784808489,-0.03181245501350844,9.718232392937605
23.537108028379492,1.9137563972682374,-0.022470422669300334,9.683335185712052
23.55364354745584,2.2382464553056836,-0.027733987353977193,9.706927690234062
23.55701975457492,2.021210150608181,-0.03376017728787634,9.69355291474352
23.573582377413445,1.893749892758077,-0.0347231274362455,9.66993468349645
23.576933787755046,1.9819268847874052,-0.028450136001673464,9.747305357012205
23.593523236450466,1.9584220776682,-0.04024627904428842,9.707087455056286
23.596845462840168,1.6337957574724378,-0.058985136025790606,9.704520483334925
23.6134626910585,1.3949005420065483,-0.03514293712049422,9.734794828184572
23.61675728513374,1.171677393796932,-0.016074395648996934,9.745261751742301
23.633398240547827,1.1182083563105174,-0.036457189837232534,9.777084347356006
23.63666457657124,1.0263012097268225,-0.043060671379314214,9.673167980486362
23.653336077959466,0.8097168736475688,-0.0389536955173163,9.716611416977464
23.656578550902374,0.5414368028764772,-0.02886431180718789,9.731382350692257
23.673279454894406,0.42115914569225654,-0.04766276855658955,9.699592640614082
23.676491135851577,0.27759132316877605,-0.024415964137812874,9.695630140832227
23.6932152000622,0.10288131026018962,-0.03133217376901344,9.689192354348735
23.696399159973964,-0.13769533833615785,-0.03287354523782561,9.733050827309397
23.71315080827574,-0.3154944572862126,-0.017992525416008837,9.687345730330033
23.716304803759467,-0.5683896794286389,-0.01327889137533476,9.700089725146785
23.733084452334637,-0.7799033862085127,-0.02609918561474433,9.712044474348119
23.73621116668565,-1.0005377565685278,0.0014935735264871629,9.753068250206702
23.753018914664636,-1.3171237904750814,-0.03815344538106312,9.728413522079663
23.75611722635114,-1.502848673012554,-0.002121148714209914,9.722683396661257
23.772953941351297,-1.6429484455651282,-0.014136691403415159,9.745707053010786
23.776024632305333,-1.975173234684458,-0.02743553918003002,9.71291683172503
23.792886867127624,-2.3242841025187304,-0.03411939779426769,9.712311115029623
23.795930906811687,-2.573340437985914,-0.024167720373589392,9.719198993636525
23.812826730497484,-2.713690398315651,-0.019383784016453496,9.766434764989201
23.815841136062442,-2.8571234877931175,-0.021961302082964596,9.737826915091983
23.832763225841486,-2.5670611732779505,0.005033022367206892,9.76683239852951
23.835748978578636,-2.0789182206036143,-0.014666321537175743,9.784030262528084
23.85269886351733,-1.7340583067923738,-0.03110432865681592,9.698112567310988
23.855655889133185,-1.6614049400170974,-0.01900384829758797,9.69357764784049
23.872634079079372,-1.6681038210426704,-0.019092238614653922,9.73081512125387
23.875563087682764,-1.7724995982496188,-0.019224757605012768,9.769259960182291
23.89257113297701,-1.7124904189034038,-0.02347214061785114,9.694854506007404
23.89547076871646,-1.4528838636808814,0.020748409156962466,9.700846339928978
23.912503964234297,-1.1551779786605356,-0.030270432410002237,9.747846071989352
23.915375792446603,-0.922446928568157,-0.005426826534704128,9.711441587478033
23.93244184127947,-0.7158849636601863,-0.03151071900793695,9.708179377610183
23.93528413339583,-0.559004457414652,-0.024238834801656034,9.752302618438593
23.9523776099947,-0.3871106386444474,-0.018951975424886778,9.689738033238003
23.955191077651733,-0.18829006528734915,-0.05731349506564457,9.68885183338118
23.972315994253965,0.06917835851157317,-0.02783759138600501,9.66995311146272
23.97510183922587,0.3215682385467513,-0.028528134818868456,9.703032843256317
23.992256981101775,0.5996585608199854,-0.02294721016157875,9.741179176475768
23.99501451372685,0.785643203448428,-0.029828117665807494,9.706235232756347
24.012197620592573,0.933915086546358,-0.019268308046130948,9.723209936663944
24.014923046332758,1.171950574358193,-0.0464973064807698,9.732371739251889
24.032135413678184,1.4992548683642235,-0.04546971347739079,9.741436459435885
24.034830976367456,1.8702120206719608,-0.02074062786903554,9.72138008625464
24.05207134075143,2.0224575960238425,-0.05581143645546003,9.733958647800197
24.054736992809442,2.0353546830884115,-0.050461232658652266,9.744463573421104
24.072008344682004,1.9985547698530253,-0.02517717726938291,9.685343607597167
24.074646992702654,2.0111763094707933,-0.026888077255178243,9.713585952224717
24.091949556383643,1.9872612611821163,-0.04801015516276962,9.732743289678828
24.094560929919567,1.6998132353161626,-0.03761221202938678,9.635012968793836
24.111894085282355,1.4332652479879011,-0.005630397176046461,9.702729028273051
24.114470132528577,1.2144384873793603,0.0036906802372091573,9.724962435592754
24.13183050243225,1.1206203476508083,-0.03953952943074878,9.748160014678252
24.134377526003373,1.067333222070349,-0.039921343227089325,9.649597179003052
24.151771143048425,0.8460289061118155,0.0005317933920748814,9.677438159061655
24.154287863385886,0.5910625798330217,-0.0035051677135633074,9.773339937997928
24.171711781942022,0.4825661408467573,-0.012477334205481774,9.743475117058324
24.17419927911454,0.3536461048499512,-0.019570633195648692,9.703163062707832
24.19165461804091,0.19386519214479686,-0.031588299242948654,9.723250820426285
24.19411047370904,-0.04945846787986392,-0.04992237616174821,9.751483402643986
24.21159711458915,-0.24066552818023218,-0.0025605633090650206,9.706397066543223
24.214021179428165,-0.4724909850981938,-0.019722841213008036,9.715422199203143
24.231536198256208,-0.6935479973900565,-0.056866382781917024,9.741135725406936
24.23392824133784,-0.8881856565516939,0.0073117406472462555,9.673282477245865
24.251473818512515,-1.2333441993260963,-0.01688148863935641,9.688321853151642
24.253835213139894,-1.5042362520985404,-0.0064345087189750134,9.69977645378034
24.271411562273983,-1.5770068118872895,-0.023245387271987335,9.73630065403091
24.273741399655727,-1.7463268027539403,-0.022533495671213582,9.713296460900184
24.291348716345126,-2.1451151502534156,-0.01292053341266169,9.681718915165415
24.29364654891919,-2.4823686540309784,-0.017704635936066776,9.75520296607902
24.311286997841307,-2.6414314645153767,0.0008243642644741404,9.75382487909526
24.313553340897435,-2.844722291287023,-0.025211812722500847,9.709883475429711
24.331224572142318,-2.756746450407051,-0.01960252029715065,9.726588459708045
24.333459188851975,-2.2881925070717637,0.0061861404994617,9.734481363350755
24.35116262165608,-1.8703553264941717,-0.03866131876579005,9.700467451419833
24.353365241979187,-1.6869463639994562,-0.03587687864261879,9.680161651463708
24.371100744053326,-1.632029168764397,-0.022187812730313845,9.711650070520745
24.373270843620965,-1.7287024626622707,0.0035570292099387,9.732298179647046
24.391037920693723,-1.7442572125495508,-0.01476552809653832,9.697711870446648
24.393175231245316,-1.4928141304066267,0.0029241111102914787,9.71095166951717
24.410972623123946,-1.1848354102824104,-0.009233385802453834,9.746155857739511
24.413076196929563,-1.0099535890421143,-0.026740188856850484,9.715403942295195
24.430909036848426,-0.8070021342180008,-0.025867767333536528,9.706445223666574
24.432981101447893,-0.6394736998866776,-0.03558601798460974,9.746414827570382
24.450844547518543,-0.45903707371452485,-0.010479427524042137,9.70572267412945
24.452881043273873,-0.3383015362348585,-0.03973233749260609,9.703540427745002
24.47077771687068,-0.04029928544432238,-0.04745543948916813,9.698673929209294
24.472781754132498,0.22428236068081786,-0.03595336631380786,9.70221899886192
24.490711625909807,0.47834898922542,-0.0473957328478272,9.696882386876817
24.492682727106654,0.7526756689897894,-0.0335326600221128,9.690685629930902
24.510646974912994,0.8907065618564829,-0.018249672319106527,9.71508777497406
24.51258503752882,1.075868016644695,-0.045553026216696754,9.749571975261969
24.5305841288086,1.3676161610487005,-0.03255178123032596,9.70241390253166
24.53248892579433,1.716296603282315,-0.016938505440250256,9.693132393518042
24.550520560030023,1.9597726456741875,-0.03862649651436368,9.723130412590246
24.552392329261068,2.0569296514198934,-0.03312486684977091,9.725037007619548
24.570458360782347,2.044735676206645,-0.04041514302020851,9.7076279867497
24.572296122647327,2.035549476367456,-0.04682567099960528,9.724796789581236
24.590397592306182,1.9902035407375347,-0.0618903463841661,9.700256754331024
24.592203609759885,1.783290557581522,-0.04346529165030763,9.681086207099332
24.610343597547406,1.5137559461990775,-0.010418643542715574,9.656251709788169
24.612114924674742,1.287641281421453,-0.011097546295657833,9.73405706523463
24.630286028293586,1.168404273392309,-0.03132685574523679,9.724658151814127
24.632020549155847,1.1197351581742752,-0.03721229878278602,9.691304079084427
24.650225845033937,0.9744686317976027,-0.02770862501907131,9.682453008896088
24.65192610574162,0.73430977270631,-0.024735003105796967,9.761674333439128
24.670165612733722,0.5492547390220411,-0.007438915012927309,9.702885095488318
24.67182976391899,0.413139013739373,-0.020036065451594982,9.683911049553643
24.690106448214948,0.26148478583143936,-0.022117443235453425,9.760858825879586
24.691735293406616,0.040693266646225516,-0.048164919122919495,9.722608683448932
24.710047968432207,-0.1520454792227456,-0.016804610367885418,9.707099785828195
24.71164003165004,-0.3758525198052811,0.00319151748077319,9.752986271744401
24.72998641518526,-0.6556577855619484,-0.06572316469656564,9.748015551572522
24.731539558581826,-0.8354583101598646,-0.05112800166419374,9.71022411641285
24.749919652725698,-1.098073279265135,-0.015328543088474195,9.720336598610643
24.75143822993091,-1.3890351083092005,-0.03581239429010944,9.691355623046908
24.769854589083696,-1.5120797796957397,-0.042260797830032074,9.731066161447353
24.77133546378681,-1.6176262465114892,-0.03887707274369494,9.64487797554041
24.789789135873292,-2.033396220157368,-0.025537073650595328,9.71624031567071
24.791238192220483,-2.3879782049882783,-0.03078626516226798,9.731803033742903
24.809731870423466,-2.6225929361116695,0.010354096332275376,9.745025203835866
24.81114024002633,-2.6510925038427757,-0.04701326842213362,9.530105533902494
24.82966983514969,-2.538258934184883,-0.0860549132295898,9.470123688220523
24.831042600892008,-2.3302975222735283,-0.02756649283435873,9.756323696564127
24.84961003804923,-1.9217994934223614,0.00395314025731927,9.680004349500761
24.850945381543365,-1.7668345384958848,-0.04205249090406441,9.694356963416448
24.86955014440634,-1.6810277482054876,-0.03270704705445412,9.729162437992192
24.87085118337068,-1.7315366869431061,-0.03785644472864874,9.795151493773465
24.889495689690893,-1.7724027586980735,0.0018154170406374582,9.72537114256321
24.89075815015643,-1.5901622905293444,-0.0164848143847966,9.694389332670456
24.90944057473877,-1.288691535096001,-0.00147667404835795,9.718021141332791
24.910662831565062,-1.0709464656547947,-0.03646766299965829,9.658780361213847
24.929383543805407,-0.8404778080889563,-0.02611909343710764,9.6601609427619
24.930566268120028,-0.6553604030427636,-0.033814180803417075,9.758335443546164
24.94932463417407,-0.490549727340821,-0.013721619853822796,9.725088827928815
24.950469557264537,-0.3884011287362495,-0.03751909963946848,9.68981137629959
24.969267130120326,-0.14625237031418972,-0.03907970912652719,9.731711734929757
24.970372511870625,0.09159248907774846,-0.03972923374373869,9.73715680154021
24.989211286272482,0.41251898657248853,-0.04552291615929539,9.72978010383401
24.99028029432388,0.7195330241332426,-0.04175185017109716,9.721132519240474
25.009161463794243,0.8530285619069059,-0.03180442897269215,9.725274096108999
25.010187955262275,0.9903649285945205,-0.05846778260309206,9.761219922325193
25.02910587602498,1.2431753666546206,-0.042644306464288934,9.730966038458401
25.03009283147368,1.5623016470453406,-0.020676457195433574,9.720295552727686
25.049052119099322,1.8970611956696768,-0.05246860124879806,9.726648950008958
25.049997921616438,2.039180647845233,-0.051053691949615565,9.671039664628312
25.068995488423365,2.033141973779296,-0.03636997588043715,9.65236609228538
25.069900120664776,2.0049207021800104,-0.04906865670201161,9.73892655701894
25.08894036836292,1.9757386132913777,-0.04048804316360969,9.722059020763838
25.08980307855009,1.8485228466602643,-0.04115634345591857,9.717570256425626
25.10888230492878,1.5832738006398923,-0.031074371179575507,9.721250179059023
25.109702670135864,1.3235495651045672,-0.047346970824486724,9.75623890282626
25.12882369129327,1.19221223939101,-0.04667041572688693,9.77044237448257
25.12960114968993,1.1649881956110681,-0.06887435542050585,9.648445966012321
25.14876518714316,1.0210321643839084,-0.03183961920940843,9.643292814707134
25.149502446054143,0.7846292916332429,-0.030056080416866224,9.730010613959454
25.168709857899483,0.6003922139764152,-0.008727286381650585,9.686668416762958
25.16940659530582,0.4636461521445424,-0.007457361298994209,9.69626291673297
25.18865771628137,0.29281704575398987,-0.0367680017011556,9.71391451595224
25.189310046011844,0.0873953044411398,-0.04759859806125108,9.737536109820832
25.208602137879346,-0.11201654903894341,-0.03321055937530772,9.669935399114756
25.209210536051902,-0.2927048122579323,0.003898759186000145,9.74058879872007
25.228546225142253,-0.5690120462674352,-0.038565909626157406,9.765100136458377
25.22911046409302,-0.7956334768642304,-0.038947975816978064,9.691122185692185
25.248488107829726,-1.0259223267094193,0.031285851307576266,9.714079642209283
25.249008047134357,-1.3032006198478872,-0.029224258708635115,9.742725666778808
25.268429591379977,-1.4950194389361686,-0.032243891886856786,9.750484155032083
25.268903352711334,-1.5997263845647263,-0.03183080190862287,9.721399443139182
25.288368482550307,-1.893533147830556,-0.010526979086224254,9.695656986982922
25.288797447088907,-2.290625469222387,-0.03153516032948494,9.735676365334228
25.3083091255221,-2.5400203455872874,0.00324258062673383,9.711002940335133
25.308693518257236,-2.7249071595989167,-0.012082408735754288,9.695288554978587
25.328250862065882,-2.8706310136846596,-0.005074557978349864,9.73279399037566
25.328589153240525,-2.5606731281578177,0.008054047507913142,9.77911008977933
25.348190748802512,-2.032934587864849,-0.0020818130500750596,9.711410782800929
25.348483841916984,-1.8027775203879268,-0.012293120265696011,9.687831626011821
25.36813411951352,-1.7407433638258565,-0.015878361480982487,9.76485675061583
25.368381744736773,-1.7091574916552206,-0.02155507830526591,9.752849744844315
25.3880773153589,-1.7588154383807992,-0.016671371775197234,9.729586414152156
25.388276968731276,-1.6802933916578653,-0.01344913540429334,9.73217336261363
25.40802069593794,-1.3752568866879995,-0.008513786405009053,9.739450254346968
25.408170799840477,-1.1396983879218605,-0.04315222262277322,9.732464250802153
25.427960632589322,-0.983819302074727,-0.02381133514700309,9.656711758025013
25.42806383456571,-0.7605561329999128,-0.027684352315187236,9.738002376792412
25.447901472531182,-0.5657659173533007,-0.0208814470791713,9.704071783996959
25.44795610744415,-0.4026514631706542,0.017942092820218306,9.666166187221666
25.46784170956445,-0.1916836273745765,-0.004430227093148976,9.701024148823333
25.467847620810886,0.01738698810422481,-0.016689040179733692,9.697957350612299
25.48778170702831,0.2726337551839297,-0.03262145141582869,9.718694128418223
25.487738830832203,0.6037886768987111,-0.016114190054036595,9.67369241937674
25.507724675342978,0.8270846294246262,-0.008175488594194683,9.743300370797524
25.507631935091073,0.9630734276717184,-0.013331975544268612,9.721115434322149
25.52766816588734,1.1796781287807503,-0.062175881914492824,9.74834399875797
25.52752594493324,1.4839372750969568,-0.04779857236213288,9.764923921342515
25.547615037799183,1.8534033971054638,-0.028616116817689316,9.71396746622516
25.547422467410584,1.9822273839355224,-0.04533409069382181,9.724977672251583
25.567561046783343,1.983286632027693,-0.03524803885599611,9.691561132925377
25.567314643521147,2.1069127872061584,-0.025028904235732403,9.686313051600886
25.58750355726483,2.0650432366127753,-0.04188073682829679,9.702893340384847
25.587205164489948,1.8477365949288882,-0.047871715584031464,9.692411430742249
25.607447405568486,1.5801865052604291,-0.029295399242028067,9.672214070711739
25.607098433861747,1.3546434369083757,-0.03625865926439987,9.737794465770175
25.627394919001546,1.2040820798886878,-0.03819877489158778,9.71586964781019
25.626992989761955,1.169402520403657,-0.046168283792098766,9.727479833231593
25.647342032917628,1.1308139137284128,-0.04800612220625487,9.688299266226268
25.646886353360465,0.8604332479616443,-0.019312363559543785,9.752092944740411
25.66728804837955,0.6321661023331612,-0.0049744175978244124,9.727552947341415
25.666777555365268,0.46524415748169395,-0.017905374047658205,9.721768592234293
25.687233603499383,0.36897372625879576,-0.020344922060643235,9.7381149647105
25.686670202430786,0.19446611292969085,-0.021834623732384113,9.706539014267927
25.707185616957872,-0.0648283379652383,-0.030601663124877207,9.702284798409874
25.706568813267705,-0.2899269470197416,5.4128360195106334e-05,9.715417722897122
25.72713827840882,-0.49411118079782357,0.011736233789889408,9.753111021214512
25.726461730734727,-0.7120009515956828,-0.0291777526761319,9.726461715130158
25.74708546495253,-0.906996651660657,0.0013069766723234335,9.714855136246193
25.74635102256373,-1.1898136370781844,-0.004770418794005862,9.771920122983973
25.767031695682473,-1.496892214322491,-0.030626358258477197,9.755884809252079
25.76623922727166,-1.575868711332081,-0.006517511390318735,9.678832927933858
25.786976539492752,-1.8283529540380627,0.0005365447900209729,9.70399805813328
25.786127164760945,-2.233467674019017,-0.0012469736377979375,9.736596454151487
25.80692509846128,-2.4712916424492373,0.0027925131960069576,9.731010480084404
25.806018124428363,-2.647720055909344,-0.0025983070144100545,9.72495416820832
25.826876029164588,-2.830183214548911,0.0004687607257663665,9.753282337069628
25.82590997536437,-2.672015040835089,-0.007419509634401952,9.757639824555831
25.84682639544673,-2.144507391633727,-0.004977143360870083,9.77796461548294
25.84579992891559,-1.8554341709199635,-0.016876433280399093,9.617864421404565
25.866778748266135,-1.7518193849052255,-0.012779779345988028,9.801136251715697
25.86569265984436,-1.6602674430178312,0.043384117305658644,9.95620071762182
25.886732024082228,-1.8190571081888216,0.07365697698939314,9.686874217827082
25.88558406149494,-1.947441684376355,0.06454299211879713,9.952040047421615
25.906687232878436,-1.6472585150593408,0.06540518588676261,9.950371935261243
25.90547461597522,-1.2437811310321643,0.012681456091899069,9.821310748350598
25.92663732118336,-1.0002796702018775,-0.004289529080999957,9.693026586567315
25.92536008794424,-0.794543548359523,-0.045506207853565954,9.762833246220225
25.94658373583371,-0.6063647746407627,-0.04363655739053696,9.757153769842928
25.945241639699116,-0.46384395815787327,-0.0031805733558368148,9.682385947381011
25.966532597972954,-0.2583562789078845,-0.026150546036965597,9.696671020488276
25.96512772057464,0.021891391023428856,-0.024001373122593445,9.719773595128169
25.986483701071187,0.2725406905179174,-0.02415996184424767,9.690585660121517
25.985013914499653,0.5429368694488971,-0.025626473703816353,9.706095255694242
26.006437275862986,0.7783862738652684,-0.019878878336969823,9.699370267790592
26.004900315057462,0.896882332599282,-0.02056221179785361,9.729763463119902
26.026389655748815,1.1026229431514034,-0.04576225431846581,9.6777868843911
26.02478452279362,1.4112306654888762,-0.044229736825127784,9.735048439841734
26.046343157326927,1.7828948321011875,-0.01306958768647285,9.761361170353613
26.044671428963497,1.9732358730301243,-0.0667399238776746,9.736852515718223
26.066298386401222,2.0359838815860143,-0.05169961452623003,9.700202625404282
26.064555562552677,2.0064529133883693,-0.04081904737812042,9.720231599403288
26.08624987945814,2.0069613020333548,-0.030591737788176122,9.693832542200006
26.08443718243966,1.9126839523622456,-0.05473736052717666,9.692500986158516
26.106203693265797,1.7102160926592411,-0.02176048005253825,9.652067327399312
26.10431964665006,1.4360884378743337,-0.018840046746381713,9.710455153969074
26.12615675003152,1.2647203267871663,-0.023072067810432823,9.67546483905486
26.124199615534057,1.1797017622896673,0.00010498089117965359,9.70364029646046
26.14611009921555,1.1082757322138466,-0.034703478088958996,9.620564913527758
26.144080520637626,0.9186851968078884,-0.06008315852947826,9.67381939995731
26.16606555711007,0.695139153159909,-0.02184903990811303,9.723823487780518
26.163962669446455,0.541537101426692,-0.006048974059163687,9.694276762141628
26.186021312132926,0.3973090667623895,-0.009756752459195384,9.743379753061735
26.183842938287153,0.22275417970332664,-0.049065996457723346,9.717449136823092
26.20597712212799,-0.008401777134644912,-0.04150441851083362,9.694575375707903
26.203721231312215,-0.19028526583885702,-0.015130868789816019,9.684822488984416
26.225934197988835,-0.45053773390983154,0.01203423497439843,9.786705440575354
26.223599185916843,-0.6825159058152683,-0.0390943289075548,9.752984762836734
26.245887469938296,-0.8557510183663087,-0.016749969255794205,9.705850667370045
26.243473874176665,-1.1609875541590637,-0.019186869768008638,9.764528753674478
26.26584241143711,-1.4551955804028465,-0.01809027007825603,9.723927304017625
26.26335308734422,-1.5743934234287085,-0.017883427221850084,9.708934617898269
26.28580801851244,-1.7615564233260093,0.00887331977706864,9.723919954692123
26.2832372731754,-2.1584181172205668,-0.0042723895472539675,9.733333412939306
26.30577094621865,-2.451185755348125,2.6620494015293784e-05,9.759975100105667
26.30311654869866,-2.6289202446330475,0.0015467373887663577,9.69660349568664
26.32573356846942,-2.8180607163028126,-0.017973715611959935,9.73073090695988
26.322994671692552,-2.7377262113011827,0.002639934572145334,9.768113822939618
26.345694126321384,-2.2734324333322675,0.010443254528113819,9.736805381423345
26.342870653292056,-1.8877479263259105,0.00046326582453019583,9.686869690857616
26.365658320968418,-1.737850625895575,-0.021846671824958516,9.740257654969895
26.362748234603657,-1.6819707900615402,-0.019020017952214644,9.782263487635781
26.385621578491723,-1.767060992069381,-0.004597714553006064,9.701303417252268
26.382624700898038,-1.7528560618659672,-0.019926076351408993,9.717880198173674
26.405589610781128,-1.449299040531943,-0.024922767530427156,9.719616625379452
26.402505669722643,-1.1897079592678006,-0.03377672136147202,9.699129031200346
26.42555827730525,-1.0366806696230033,-0.023903359816597507,9.665584383488373
26.422381583715623,-0.8671325335492692,-0.011143467498027311,9.679915170183813
26.445525348900766,-0.6383064976841026,-0.03227205588623586,9.734499694780347
26.442254891230363,-0.504872583949558,0.0005260731743343625,9.676398245233354
26.465490171505824,-0.3231905782088531,-0.013354596326384638,9.709248238170348
26.46212531402894,-0.04994453134235664,-0.027112291844131955,9.737330956961344
26.48545538499961,0.18845573343204897,-0.04786728714610674,9.707187775894086
26.4819975366279,0.47382628408935334,-0.026409363310555174,9.72197406638862
26.50542728775024,0.7389905625328824,-0.009020654999834045,9.729962428414941
26.50187394772968,0.8788248594064971,-0.010017703886191831,9.754026297532604
26.52540044273074,1.1050331682840926,-0.05128488492809147,9.732946800280699
26.521746308285152,1.397382474512032,-0.05333943565506165,9.715488973130261
26.545369644285916,1.7088120990991271,-0.024936796282545103,9.719128700472146
26.54161495828744,1.9448961280132884,-0.044376656543242854,9.692423876083883
26.565340956364718,2.0511882665869057,-0.029842010630731372,9.668757764099105
26.561483882281543,2.0632453624131997,-0.017201438395073643,9.692351943155261
26.58531296373723,1.915506664085543,-0.015028298016090163,9.693897776013234
26.581353303766566,1.8554541928639359,-0.030299729626742024,9.7746871755666
26.605289574714376,1.7766302172334079,-0.026212446713282267,9.678194122474283
26.601225134037218,1.5345978687368023,-0.03480993490635857,9.735253476337716
26.625267632294605,1.329176608706413,-0.017143337876995866,9.738933839448109
26.621093764865925,1.1709403366678819,-0.02946107874035383,9.721578088421268
26.64524533239726,1.119598344722694,-0.02314721861738271,9.686703656544257
26.64096272306392,0.9315488607251294,-0.03477874076963087,9.719326226039463
26.665227047323448,0.6872473575294936,-0.03286555176129415,9.74434481945134
26.660833122713665,0.5412972192341793,-0.02945111529097893,9.713788525134108
26.685210212779307,0.40112795658850486,0.0014341937307995158,9.748051960878456
26.680700632031325,0.2415380966575588,-0.04258306223539819,9.702606516867654
26.705192252592518,0.035418254909208614,-0.01605676845141076,9.690234678482684
26.700563920994345,-0.21331335870535126,-0.006591549790372372,9.684358816002769
26.725173437855638,-0.40937535558742827,-0.005358391994632759,9.705757812968479
26.720429333203242,-0.6634773234727276,-0.039390551181436674,9.70266570624339
26.74515746853614,-0.8384368287376679,-0.014586470452281588,9.633486674363628
26.740289426567873,-1.135380865899248,-0.00482364855162414,9.724516335752835
26.765140785298854,-1.4425503398689214,0.0005869062215473903,9.7377840903082
26.760150920010627,-1.5802265265742972,-0.015373023776112042,9.751584926915493
26.785128180134254,-1.7458998523257943,-0.012105412904223203,9.712541740656619
26.780011420926364,-2.146978552698703,0.022381117242257866,9.741631304427637
26.80511604102873,-2.453913551825498,0.01567036346906666,9.775323670005255
26.79987104742766,-2.6495698598849624,0.049729915105012595,9.734375714766509
26.82510639501095,-2.8155698393587865,0.0003999444114444933,9.68597197500788
26.81973246876568,-2.8020966734927355,-0.017902192755045655,9.73265789103304
26.84510265044916,-2.304210710772459,-0.0014992452595919453,9.727449822571545
26.83959397751764,-1.9061862725441028,0.010550288605679128,9.700267572515221
26.865097994770906,-1.7554736333669159,-0.018478446322492095,9.717267269818999
26.859449029081993,-1.730899522238673,-0.055291814588797526,9.759767372457857
26.88509291601317,-1.7748316706829117,-0.04157586124700205,9.713684548793882
26.879305792698517,-1.7868545857071227,-0.03554567948676782,9.707039907768799
26.90509046889862,-1.5341512651182725,-0.021504749033886387,9.761141818945976
26.89915854067644,-1.2335640438004458,-0.02984202285781728,9.735330103186772
26.925087552960214,-1.0339053583866664,-0.0334867853551586,9.726430653139111
26.919008896841532,-0.8457991604035833,-0.027738734171691665,9.738583938634955
26.945085752389033,-0.64403295031289,-0.05210434312366989,9.78169951066049
26.938857639307926,-0.48220950423954895,-0.012507379499297712,9.733125753186762
26.96508553500928,-0.30224146993469925,0.004678787799479788,9.674100626200124
26.958701824973584,-0.0512115614435585,-0.020276694038855958,9.739366439431063
26.98508567519526,0.16520167518080317,-0.021782488538329238,9.687920647017048
26.978547750872085,0.38266266311479696,-0.024068710088071925,9.688432317820817
27.00509184120313,0.6883065067165818,-0.00431026175736212,9.7032136630936
26.998391647994666,0.9072250596232847,0.00896114581122355,9.74204476932913
27.02509867267727,1.1302135105570068,-0.032435771083265626,9.692342755111728
27.01823688762201,1.3823418124403561,-0.034930914696137544,9.730285827584677
27.045112401254304,1.6967425313578184,-0.009273392620946133,9.69119668743759
27.038079478823597,1.9319484469711325,-0.030259574963863573,9.720930790717187
27.065121979133277,1.9856272305461313,-0.045463911203897554,9.933571670922277
27.057914039532022,2.0469946184452357,-0.014909427164354802,9.812691328272786
27.0851318421895,2.032864099615874,-0.032038399250993284,9.778586074730589
27.07774693268061,2.0293568119267626,-0.04621138005119165,9.740247748611587
27.105143326839205,1.7812987336038741,-0.02325757237957234,9.701498764710333
27.097574031941196,1.5179267908886078,-0.020931274118388386,9.720709337562488
27.12515102061794,1.3161663584539096,0.0024074521663647016,9.712563535085165
27.117395213427425,1.1946424569641592,-0.010184555209916854,9.731834382272288
27.14516570583842,1.170508249475171,-0.028899120549828416,9.652925942055775
27.137222429455274,0.9577753091866615,-0.03584545610855929,9.651559522467805
27.16518643779224,0.6562087154110682,-0.012611857364676352,9.739074448882644
27.15704522087477,0.5218352848970697,0.0011101739919999235,9.707699300758684
27.185207321319282,0.41056486071852666,0.0023109720012629664,9.743793232033134
27.176862800905578,0.21884652789925746,-0.02644263240666886,9.737893298922277
27.2052299503962,-0.0284003139890576,-0.023950579630376414,9.708873047359702
27.196677412077,-0.3503884448230578,-0.035681512244343294,9.725592801905066
27.22525436900608,-0.6269638054216625,-0.006787167905691306,9.739881025740928
27.216487988342994,-0.9072712526334725,-0.05306196203497168,9.762674844285351
27.245280641756693,-1.1421760549916995,-0.022026165280174915,9.706151934866542
27.236292297512183,-1.3874401300610122,0.02358540898876399,9.72617350344149
27.26530687437473,-1.5702778570197071,-0.031194440820384098,9.731381672995068
27.25609573359905,-1.659512631332941,-0.00419314780664886,9.727490557566153
27.285339838124475,-1.994106387047497,-0.009718170805520648,9.69564134680892
27.275895932906128,-2.289080211962133,0.005534116630691334,9.667075535718636
27.305379220220168,-2.459871937813176,0.020168685777932634,9.720252903881049
27.295698916105223,-2.5681593643772445,0.038091477899620294,9.70114609864459
27.325424456790415,-2.6560991621726764,0.0021607053652224024,9.717318424833817
27.31549789075068,-2.3683767368224067,-0.0010272374317033056,9.780077244846808
27.34547464375773,-1.8347577304407636,-0.0038449798025468845,9.752805349348288
27.335291547789005,-1.4566858426908227,-0.020317878440936916,9.68929380960369
27.36552548518179,-1.426905677194165,-0.007368747013773777,9.684507246365383
27.355080636391016,-1.4592733220101386,-0.016257647800862324,9.78714907587224
27.38558221159508,-1.4596998325667436,-0.010093873460581387,9.761172024720002
27.3748674937611,-1.3307697524930056,-0.00015887161491474615,9.69724388514759
27.405644467882667,-1.0573523229973962,-0.011433967846807025,9.750976902912532
27.394648437023662,-0.7705405419677465,-0.017648706338164795,9.713164105954139
27.425707428775482,-0.628304413190063,-0.028543866611114885,9.692874109285906
27.414420411692063,-0.4617586924971438,-0.04582522895607158,9.704455109878515
27.44577047454476,-0.255498024189349,-0.014507640708598583,9.741180399944119
27.43418515727024,-0.12862975718097827,-0.013815008821476503,9.726377818840584
27.465842798387886,0.003649148985139387,-0.006922446397725064,9.695556927432905
27.45394941080739,0.23644710451858686,-0.006701708208008538,9.74666021133593
27.485919423332305,0.4557630264609623,-0.044414412989488686,9.710593250977231
27.47370612700106,0.6053714042218716,-0.027866318567171183,9.73923703283795
27.506003479798707,0.7520733185293167,-0.0014755878656564129,9.727195226899186
27.49346028181153,0.9527524635308672,-0.01935200674272309,9.775847644159015
27.52609499847732,1.186364665976085,-0.03599284178337561,9.79630051011453
27.51320791071096,1.2250809691146654,-0.020014377753545483,9.692975425947072
27.54619317594464,1.2177206037105133,-0.027689927533362583,9.722742619927836
27.532950186888517,1.1875638869123615,-0.058373575377605284,9.757721879180245
27.566299069580026,1.1936016419695656,-0.025595454172047536,9.707696021379908
27.552686341729114,1.23767305082349,-0.03646892784724619,9.688648959792632
27.58641335148185,1.293817609530694,-0.015522561708349593,9.664139926259136
27.572417214845164,1.2600235645637552,-0.035103112991353456,9.732646942493144
27.606538119813692,0.8212598454242503,-0.030641246652560444,9.712754763046647
27.592141101761932,0.64912927118593,0.0034502816490693234,9.742872925182217
27.62666694385972,0.5833625716390977,0.00483874584940019,9.798081409492122
27.611853676353906,0.4924116011448762,-0.028390680009053242,9.74050575460961
27.646803960424272,0.3457647128939221,-0.028762033485111718,9.688158015675457
27.631556664429144,0.2034257402850144,-0.017528935296431795,9.742631157018936
27.66694951920791,0.08076031987821909,-0.012018086550683425,9.75986828693597
27.651250940996835,-0.06687145086142707,-0.020663154439455142,9.732133320830119
27.687101503821307,-0.228239492668417,-0.023422457042638015,9.718701753727125
27.670929375459952,-0.38167545518949075,-0.028667390453706774,9.73260413564271
27.70726225806533,-0.5001860881033282,-0.026012780232174355,9.74100528351002
27.690602386031156,-0.6265807769809908,-0.03417493449999989,9.702134347528585
27.72744010195323,-0.718484566612091,0.0029775366436879283,9.697822500816311
27.710265875103495,-0.8516611402272077,-0.02290262732894888,9.737355549371337
27.74762966545577,-0.9725820165988898,-0.013583647785547003,9.687252987667023
27.72991614187383,-1.0384253375309727,-0.001583618754226117,9.700773008820097
27.76783073946644,-1.0960652993324118,-0.006370808325563991,9.714193327123008
27.749554482478647,-1.1317413138370804,-0.01965243554455188,9.737266764933747
27.788047866303806,-1.1966457484830968,-0.0393295691186727,9.713620914976085
27.769178610560203,-1.2240093080492631,-0.04534779100541996,9.722446814030318
27.80827423056372,-1.3743369457571568,-0.03354912341246888,9.77162616654837
27.788782922600575,-1.3912347564049339,-0.024757650187630445,9.752281308072615
27.8285164600205,-1.1607103828692569,-0.008050265202785203,9.721151140306072
27.808371953468193,-0.9091553962477069,-0.008072718428315173,9.720325237754963
27.848773890532726,-0.6899969812235851,-0.025107372078780027,9.732769298957837
27.82793879788206,-0.641684816349924,-0.009815059385237614,9.719941152895311
27.86904827364718,-0.6954453249378446,-0.001673589145371478,9.687251920956266
27.847492000876308,-0.6997763346453603,-0.013925053940848,9.759438955608601
27.889347278637754,-0.6244001025783669,-0.04602541746188964,9.69915307789262
27.867023795621048,-0.503399457959024,-0.017608358325538694,9.659867134827476
27.909667786682615,-0.3777960493304149,-0.027897114078599586,9.706230415566933
27.886535469496803,-0.26574041448445757,-0.04409397305663973,9.731636475833719
27.930013114257164,-0.18758117937252003,-0.015067881671749862,9.743955126970981
27.906019391082626,-0.17538875071789653,-0.007006401394641804,9.720060004401581
27.950381170690434,-0.06613118103481196,-0.02248936374391004,9.749959272713598
27.925479201328294,0.04929458109227967,-0.017681988409666966,9.767720948861188
27.97078155617469,0.13894933650091124,-0.011043284548321066,9.699150936484408
27.944908206002108,0.17200927249825373,-0.011451578020089663,9.684573665304313
27.99120782565467,0.19547800850034686,-0.024940604117197604,9.723396823004897
27.96430219459483,0.24164228684906683,-0.03539183500287522,9.740928533786418
28.011669778731893,0.27265107423336477,-0.03259796932312749,9.659560614226864
27.98366235654187,0.30885160792170935,-0.02695668240870389,9.65754183649625
28.032168587176113,0.2965653709344595,-0.04009662709677436,9.716458706046211
28.0029793985183,0.32543986163067434,-0.03901387643573144,9.673760802990943
28.052711081799178,0.27836876944113015,-0.005402824496432921,9.716171047925778
28.022256612325815,0.2398131561748765,-0.017759333565534084,9.76067276586426
28.07329943477179,0.25394619156918324,-0.038228288666568105,9.699295015872316
28.041484331041563,0.17292225806754372,-0.025085935008985105,9.695903259028745
28.09394241784793,0.07127514220934979,-0.02670697747178174,9.712209456415298
28.060658020907002,-0.04229411741597507,-0.04165456931021294,9.787549869107462
28.114644980458575,-0.03019455965907957,-0.02723149079848345,9.74480336302951
28.07977164828087,-0.03935820563075431,-0.01688633813010528,9.665102482916948
28.13541224153225,-0.23524750085690016,-0.01443655700349769,9.701876277948488
28.09881257323096,-0.43298384876034435,-0.038035868085053014,9.752219058733724
28.156253448174358,-0.5218063501393019,-0.02033031825499403,9.71894178881522
28.11777190467794,-0.6313050682192886,-0.021218798134704966,9.717740254255997
28.177177891693567,-0.7061333292198372,-0.05566084712547505,9.735584220884025
28.136640827008996,-0.637878393564571,-0.020769857214652326,9.72621682774675
28.19819994068177,-0.4970576966300313,0.009236065062978097,9.67497365026232
28.155403051030007,-0.41426048209889277,0.0047266002235741445,9.680072937108745
28.219335332198987,-0.3293630259313698,-0.03458781903231867,9.72797176860755
28.17404926087298,-0.273704734645058,-0.019316308256712805,9.754465211187258
28.24060223788534,-0.24020735808809385,-0.02541157818616056,9.709347264805043
28.19254985488636,-0.2327629686818316,-0.018837953040412744,9.778372531302903
28.262020427693255,-0.2339195244703631,-0.025453466602821415,9.75765283933247
28.210882424936422,-0.24227334649215704,-0.019766621818864738,9.739948436057242
28.283616512984192,-0.21284951296750176,-0.0367603534886627,9.767001140276891
28.22901763749386,-0.18156070097030327,-0.03862144820153536,9.749128512682057
28.305434009509288,-0.19531206103886442,-0.015662551107574297,9.734073918796334
28.246922484807914,-0.22781982835699224,-0.001526913246821626,9.689038300179297
28.327515049776586,-0.22912610171545947,-0.001874193535444051,9.75473901622259
28.264537890146613,-0.2082249440345131,-0.025335574338975524,9.693786186462184
28.349909910129227,-0.20101681158904403,-0.026960145749105362,9.656381448721573
28.281790848799346,-0.22169950330235244,-0.02044950750618094,9.699542718244802
28.372690033425137,-0.21830194783741397,-0.02617151942014928,9.742823580503655
28.29859722370257,-0.21734172132712187,-0.015751090487957458,9.73036685930475
28.395970608528195,-0.22792240653678633,-8.654696174795835e-05,9.685101421005355
28.31484528968193,-0.2223055014366861,-0.0024388580670859955,9.75468106779829
28.419894150998843,-0.22072577347908162,-0.039099604530816866,9.788953646132635
28.330366207331107,-0.2288948265949692,-0.012918280456016963,9.718105922433518
28.444662622699973,-0.24216743756088666,-0.0070936099055514505,9.711971503339202
28.34491635744846,-0.23108972150543902,-0.029765754575299817,9.714481546537066
28.47056818345052,-0.24788706555962275,-0.027188109164693757,9.714163308473987
28.358122382494603,-0.24088231855869005,-0.03244708246585533,9.689986595492714
