Time (s),Acceleration x (m/s^2),Acceleration y (m/s^2),Acceleration z (m/s^2)
4.000774362844568,0.07350032307523123,0.09887345714483442,9.602101663391466
-0.8383815194187605,0.059138283345284724,0.10047433501076704,9.658025535799721
0.49857477232331354,0.05635379938247823,0.09488198789542579,9.620945586783064
-0.2781823517866258,0.051934211794100134,0.09954573648804568,9.637564295115842
0.29198797067572363,0.05212891399360756,0.09956266534912045,9.628523751941003
-0.13319176794557244,0.05210489871419368,0.0953616940876653,9.629026140470524
0.2326108134253825,0.06147888143091461,0.09006214401422034,9.621176533032664
-0.05832291058901714,0.051681437936835654,0.09582422580259808,9.609020937030294
0.21233745271406437,0.055033497692920826,0.10004469466820005,9.61192957074873
-0.007737948011572271,0.06949062224342112,0.10283263589444896,9.620475226492992
0.20799415699330762,0.04785840828762564,0.10304888304756557,9.602795682185414
0.03182804140214621,0.06302302837657518,0.09649598505805738,9.607527056672541
0.21184297927154844,0.08311870824008305,0.09831764585397422,9.600166601850539
0.065426554975399,0.07921040582482816,0.0993856102660107,9.595263151280788
0.22021867668119086,0.05377795288228166,0.10883489588634751,9.599228322074863
0.09537968678025263,0.05924449373824047,0.10444556210364396,9.604985453032441
0.23156689114494827,0.057986903118955595,0.1043498585864205,9.594486486840896
0.12304989018890683,0.06535001257495296,0.10727429238903659,9.605389756696969
0.24474403059332991,0.05594067939259021,0.09878652460006261,9.580404135966042
0.14912750551794404,0.050709288739729234,0.09945564496194373,9.600558722582372
0.25942456236605704,0.05493755135097179,0.09236101546202631,9.589688795083333
0.1739879269179725,0.055930720401994864,0.10966348933563363,9.588107417200927
0.2748829549615532,0.05657951380614837,0.10160804652812097,9.582825909968376
0.19795602029143905,0.053984967859595195,0.09326128538590413,9.588267433914341
0.2912306012320617,0.05789935186424605,0.10573508644084388,9.57614352948265
0.22137750377259077,0.045917243481749054,0.0923904540793405,9.58051300596792
0.3080335473160575,0.05482024827867109,0.11278018930911363,9.57560922606306
0.24423668586991384,0.04763181204286554,0.1038122154240832,9.581854120172022
0.32540593086056124,0.0683329717562288,0.10761319279105415,9.575709964335212
0.26672540773307035,0.054540465422554966,0.0990511124250278,9.570358295165564
0.34300564835117653,0.04714064544336261,0.09306715389537425,9.579463473082695
0.28886798310073697,0.05922933939384188,0.10030972648186415,9.569739440563339
0.36102565857623775,0.05198006500025451,0.10052777176573095,9.552984944666637
0.3107709894675845,0.04461075526552884,0.09599814250725817,9.570159731485234
0.3791626124004063,0.06683589484349371,0.11077213919264822,9.56794145003585
0.3324300870832917,0.05966569463989663,0.11164264861507021,9.562987598270917
0.3976149323466119,0.05723349774098392,0.11480909766341514,9.55666395151945
0.35391002719907333,0.059746455071666225,0.10513350230239105,9.562312454164022
0.4160835206386037,0.05302954504938972,0.1082103299474877,9.55614010839868
0.3751976712653598,0.07047195409048435,0.10884748709612468,9.555175421611736
0.434818700769677,0.0557465956870528,0.10349708925433922,9.554973455511607
0.39641275603246046,0.055919087765522416,0.11089279917591773,9.559334540475303
0.45358572877417624,0.060406163669071804,0.11101408087600434,9.552705348835321
0.4174622753099345,0.054443616559754805,0.10271098594543882,9.551569103882109
0.4725569158413758,0.04256184987010197,0.10441450248093011,9.56319738857502
0.43842318326729396,0.05409639307254223,0.09804066015531503,9.555623055058522
0.4914478455238688,0.05256275774500946,0.10926933536583656,9.576161405686921
0.4593009027491755,0.06060407171412134,0.1084037385724336,9.572157034548502
0.5106203186829933,0.048330002839896795,0.10229262741602099,9.581788131228233
0.48011736959504814,0.05115183715780767,0.10445560675813592,9.584587807162134
0.5297166290595506,0.05734688953283906,0.10769042575831198,9.59745341576583
0.5008637727254315,0.06271353356930748,0.09505953779364182,9.60316790723808
0.5489980802139675,0.05469082176485909,0.09051732570602515,9.59397442926245
0.5215594578031097,0.04381149161513741,0.0947468195370755,9.592403837634022
0.568197647819396,0.06105444449335401,0.1058999045064712,9.602225714710226
0.5421579585889142,0.0682268031256785,0.08966751844671549,9.600530039113673
0.5875748412754099,0.06662599735313693,0.09717626231115375,9.603159151505709
0.562770406646173,0.0495699362467837,0.08295941403647526,9.602102542091428
0.6069036803176827,0.05306535318221012,0.08583497713583686,9.61346331747393
0.5833063960077781,0.05297218601142726,0.09287303109631753,9.592116081423491
0.6263682453029898,0.05943554819601822,0.09041557700549185,9.605764955181842
0.6038619111426125,0.06503142621600902,0.09085082536877832,9.615190995267804
0.6458994768254153,0.06051740012957068,0.09343986651701873,9.595583385337882
0.6244354473314285,0.06006138745836336,0.09899875478484713,9.599806929118728
0.6654149360772545,0.0475948725429103,0.09876502677346893,9.608357394000919
0.6449088419467705,0.05265322752698619,0.09777107163620406,9.592950390019249
0.6849841100332142,0.06230337622968365,0.09498714466054188,9.58727672805839
0.6653715487695071,0.050987344468247556,0.09856466555051105,9.595442174508982
0.704481314534351,0.05920993927767486,0.10295267990387574,9.591208242409184
0.6858140745117431,0.05434324624560941,0.10671838654035957,9.596328207290421
0.7241453181351292,0.057689694057108665,0.08960951929280357,9.588666176188621
0.7061979477119781,0.062231719104605066,0.09728943061050202,9.58887537259883
0.7436869671429278,0.07094408955836297,0.08910766919686233,9.597059696495146
0.7265944263801306,0.0550053877933714,0.10021426286248877,9.592962065041219
0.7633956876350766,0.05149631704185952,0.10275502920629034,9.581697395413455
0.7470117251821986,0.043691221323410245,0.09626723663144907,9.581795526828929
0.7831098707065633,0.059500069885848786,0.10125711712242547,9.577148739403286
0.7673117741943933,0.06396597949747514,0.10931451739897746,9.575653030587846
0.8028011739733308,0.062151937963266984,0.09899292809808051,9.582186020706057
0.7876782159719524,0.05492061711033395,0.0951263154429111,9.586402433048663
0.8225622160725706,0.05299626139426622,0.09506384537086367,9.57048021754815
0.8080055105086522,0.058505489055205896,0.10315927999506547,9.571015207573959
0.8422224338364005,0.06390208422479364,0.10391948224974203,9.566412182673059
0.8283097392137707,0.07204061534694511,0.11108523286434176,9.569994180262649
0.8620051636537188,0.06015939921671223,0.10899897758496786,9.558515756074973
0.8485584895650997,0.0681152666928161,0.09233840459963331,9.563105637684654
0.8816223407834807,0.06466460497005742,0.10631237347099962,9.552874516813377
0.868750868178911,0.05110433596067447,0.10892956849328238,9.558347688895118
0.9013655956397222,0.05117490416053605,0.10412184224837184,9.564373422345339
0.8889209342257965,0.05084473026282731,0.09570423361026896,9.56302190187186
0.9209702787160816,0.0564452310220454,0.10961301934065688,9.554495674648054
0.9091495558274209,0.051771914302786444,0.09663638954935913,9.556721023212177
0.9408208075435627,0.04155442451729341,0.10041515519299524,9.550632278846422
0.9293522488458015,0.06901408104312622,0.08962442106350259,9.567559240678868
0.9604911564229299,0.05873363360124269,0.10269183618801223,9.540676309009202
0.9495369618638361,0.04679450564558028,0.09767495894847698,9.561214848069854
0.9802981216008503,0.0514753525561359,0.10858002572457162,9.55707501772405
0.9697004189203275,0.06395290797554949,0.10711668755705085,9.54791549990104
1.000017597015893,0.053146798350468434,0.10372893140397225,9.548927056648914
0.9898502846955453,0.04874840461136611,0.10596428557127582,9.54234418325097
1.0198431483144854,0.04660709360558572,0.1064816846135244,9.549401465026675
1.0100235312129437,0.056757293584003804,0.10287443463085315,9.55048302449978
1.0395396604379952,0.05213980804632742,0.1068371935314806,9.536535794469453
1.0301459342026666,0.04551687352966281,0.1086042971641298,9.545804058139423
1.0593587355625864,0.050814023120096224,0.10908443444817868,9.548326377487076
1.0502613695607221,0.047611594037052195,0.10048112146205013,9.550839921546062
1.0790817884604118,0.056664393504783736,0.11386983292374793,9.529701200787493
1.0704376789254866,0.05010645488618744,0.10397553377789764,9.537885241189647
1.098955296223149,0.05347582947353878,0.10537872025809085,9.54115116070476
1.0905161332796285,0.06008640476182206,0.11618289967067395,9.537927196745725
1.118643994184645,0.05298977355853863,0.10753415985001902,9.538530806437908
1.1106047189555612,0.06562658323018215,0.10397521901924907,9.523706622565033
1.1384830281938612,0.05278645283871279,0.11134997011266495,9.529324005041337
1.1307160408692094,0.04844654544616174,0.1101728407919615,9.535063374420147
1.158257430622739,0.04918478974190368,0.11506330396530139,9.521814799932443
1.1508136111669602,0.06193729179257644,0.10928177125278865,9.516979956669795
1.1780743961927578,0.057234076140249154,0.10662112664084325,9.543615012399144
1.1708694230665784,0.04077216861875758,0.10971387738174682,9.531965018854013
1.1978168037227799,0.06209188897693992,0.10524358997269072,9.5330300841202
1.1909488898409586,0.05744312416232205,0.11510921745046156,9.518364731506264
1.2177118836479712,0.05264404119318492,0.10117931586343239,9.51310208387304
1.2110478116678443,0.04497578366022033,0.11416949129319386,9.527406510388506
1.2374639967473033,0.048513229936237884,0.10893423634463674,9.524591676012918
1.2311101032216212,0.0519903705747613,0.11053072749677434,9.537818995717462
1.2573575692034542,0.060833896241127616,0.11286204504670251,9.524465120026932
1.2512186032720423,0.05853377795142251,0.10964548758378351,9.515278219979006
1.277183598163188,0.05200017895166406,0.10437476913010038,9.520872210354028
1.2713230236258168,0.044725533392354244,0.10623286025592502,9.521735883995541
1.2970942929790028,0.050337809700917356,0.10801793008719326,9.529890442029316
1.2914097029443103,0.04931898271816281,0.10181252583524833,9.512698176313911
1.3168687171895261,0.04502986069121676,0.1031603241434874,9.51872575937214
1.311523751871008,0.06021882582331347,0.09585233915197817,9.527153726110145
1.33683927082,0.06527635524675858,0.10815578396241063,9.508646088345174
1.3316052597668266,0.05329272213263329,0.10855062336677739,9.51638874022502
1.3566221339489337,0.047104855052987026,0.11615734613757249,9.529430910105356
1.3516478987068603,0.06318393936411036,0.10176951612681465,9.519052006008135
1.3765383532727504,0.05639275084668408,0.11284506796024577,9.516140624003906
1.3717472621937636,0.056824007378710524,0.1176979978007443,9.514923106024403
1.396396692398967,0.04183578850951906,0.09960838575938967,9.529206127575863
1.3918773432198657,0.05404159120440646,0.11335692832741773,9.518223455514534
1.4164042191795971,0.06023500428227471,0.10398294171413622,9.512303819688288
1.4119930624805137,0.06921203747432295,0.10972651212701881,9.516278165782905
1.4362670428144308,0.05397264733836853,0.1030498139751254,9.52075251819778
1.432022118649628,0.04553325967381603,0.11662502419835778,9.525098942149805
1.4560549850463052,0.05042036527774411,0.1086647809280276,9.50906914066697
1.4521072390348586,0.05313368090876659,0.10705340885050123,9.514824436354008
1.4760690440400939,0.05069313341306616,0.119250153064662,9.517575290257856
1.472322715670612,0.04852120383933432,0.11096960277151782,9.508772990498795
1.4960464487587426,0.04706366002512375,0.11216632984976438,9.515647385031972
1.4923500786505053,0.05763992596119983,0.11130548442805317,9.496262678764491
1.5158452904227595,0.06549913140441875,0.11257642135257245,9.51751475049557
1.5123743290727438,0.05647161301291431,0.11448164416047872,9.521570014966343
1.5357602603882847,0.045893224050824355,0.10422063918228011,9.51134620374308
1.5323854440027782,0.04487546264041133,0.11180065864530431,9.517589221241783
1.5555592535542482,0.05857141702720326,0.11513096818764107,9.49383250460756
1.5524749536940199,0.061258896113401545,0.10567871267000248,9.507329530669184
1.5755699258299225,0.049683528673709836,0.11324835123659223,9.502536700103601
1.5725358216503724,0.05243835933862787,0.12421403012224713,9.511939495825573
1.5954175341152794,0.06381863060940846,0.12162172034983591,9.518301542447334
1.5925582021020437,0.06168951898449014,0.12072540898107754,9.509076259329921
1.6153366136650433,0.04134715187105911,0.1062183716150933,9.50419054540755
1.6125863537330871,0.052857442551834166,0.10839363183747361,9.500391340593197
1.6352115880912126,0.05100090629652379,0.11417343885241371,9.509211108998315
1.6327070516394682,0.05026984054950031,0.11020132311833127,9.51270293425716
1.655222037811127,0.058764952552158196,0.11158984967982605,9.511607343137936
1.6527451496051386,0.0563276664448653,0.10848633941282733,9.510087814804335
1.6750439748684176,0.051110000149215816,0.1140932505702412,9.5048398899471
1.6727519432569713,0.058311098538716855,0.10472088717838392,9.510058307334116
1.6949717916829778,0.04749072251988578,0.10740980692835744,9.511227004133854
1.6927575823593113,0.04753053703153313,0.11609209164283822,9.512836015722945
1.7148459716441407,0.04508972931036056,0.10857988541866737,9.514462879684102
1.7127935804153214,0.06582958255065269,0.10864080387980238,9.496132208825905
1.7348018511260614,0.05302224713593452,0.10011811296913735,9.510352555365845
1.7328774132281355,0.06039542496121693,0.11351914707112228,9.518703829501058
1.7546685418727639,0.0447776919352642,0.12337914935513468,9.504155653437218
1.7529207324939016,0.05366132165117755,0.11615801928562536,9.505227060286172
1.774666060788833,0.050375092500167626,0.11738336960432343,9.507266013691229
1.7729418049518684,0.06486669509746444,0.11072579340948187,9.50735462656222
1.7945122017428257,0.04158535366249805,0.11262493933222789,9.514893420699435
1.7930113420244937,0.04706943657237256,0.11189438755974968,9.513241066157264
1.8145230774877992,0.055519790924753655,0.10728766389833508,9.515650572392865
1.8130351994533025,0.061535881292201944,0.11712150490417338,9.503597816399
1.8343504149757754,0.05424976856886705,0.11086597566679147,9.501156440834965
1.8330296813685532,0.05432393645686546,0.11051625696590145,9.51259664737874
1.8542876295241437,0.06111803650535625,0.10162659184817695,9.5154217709313
1.853039739715628,0.05704183914857137,0.1053841247654263,9.502588331861658
1.8741778625151162,0.04113035590775779,0.10953819685389932,9.518024162268786
1.873076353561904,0.053751271979345934,0.11856934733704703,9.500448836887541
1.8941771271577617,0.060353455388686694,0.10604271590955314,9.495546550827022
1.893150056391372,0.04878325480327197,0.10434751704955603,9.493376254704872
1.9141700577588168,0.05076960718939866,0.11154296588568627,9.500418761670849
1.9131765544583847,0.05131458854754086,0.12172841032201116,9.505314591607739
1.9339931971717723,0.049796886986761026,0.10300803099713507,9.505051948142176
1.9331789584740324,0.05291972375554648,0.10507292871799889,9.512134091002043
1.9538487086870209,0.056807872746698636,0.11595603719137972,9.5079616615673
1.9530756412603272,0.058393418088276146,0.10473006996651767,9.524093864208997
1.973645745036209,0.047790327274593765,0.11522373671419885,9.502979114745626
1.9729947948541326,0.05093070436393932,0.10518903685012934,9.508394703644544
1.9934881770774808,0.054152286890121866,0.11485083199255508,9.513270454387552
1.992979476431574,0.051969338851721156,0.10855596206544536,9.507655655086849
2.013501190658885,0.0573080927674136,0.11569436013279655,9.501909367028826
2.0130373889605986,0.0637296326970689,0.1204223647574904,9.51039582094982
2.0333876117220537,0.05119362843351044,0.10701627809776862,9.49942391352876
2.0330091203343805,0.050817890780925266,0.117258397566584,9.50863977433202
2.0532594724174644,0.04119322629055506,0.11139852506802693,9.494894689689058
2.0530055186292975,0.05442495785627261,0.10814005772386565,9.513118760215809
2.073121329509337,0.04991029129235655,0.11504606555623528,9.51693045314391
2.0728949587149565,0.06355616828847517,0.10941383779866716,9.507881014114185
2.0929276730460606,0.04322298709321838,0.11189885136670696,9.513489598748793
2.0928158718405894,0.06326405447306004,0.117445836173517,9.505819852898627
2.1128269204816807,0.05830406623611143,0.10862996215045459,9.50220523596636
2.1128848824644093,0.05635600752948198,0.12410604774645048,9.501050293169035
2.132851521036419,0.05981857160681474,0.10358932237466047,9.521020553859577
2.1328875414864323,0.05676516479286746,0.11036728831756894,9.50379773374284
2.15270662276689,0.054485927178767886,0.10872660966843609,9.501171310526672
2.1528563328382733,0.04195123111876078,0.10264023891462393,9.503957450125307
2.172590944508127,0.053898847748656165,0.10707907343745943,9.51381177347359
2.1728041025842946,0.0547534695923442,0.1105186307835298,9.5140617844768
2.1924976751982026,0.052043991876703145,0.10496734768039137,9.51148952978553
2.1928632862223574,0.05816542060981838,0.1161071346057418,9.51557998052712
2.2124953962298393,0.05469751742609693,0.11909772414282892,9.509558244119749
2.2128247582564415,0.05869669167849455,0.1173318518542076,9.512035114313543
2.2323673498181873,0.05481685667303662,0.10095506755602804,9.483285588107462
2.232837169937164,0.04811760376290565,0.114813043934029,9.506268823913212
2.25236675137641,0.05199674508872274,0.1083761350983946,9.502611814718323
2.2528395371188137,0.04314259748632196,0.09927592259065057,9.510254263384427
2.2722229769589903,0.05690870450142903,0.11867462856198935,9.517760541992267
2.272882701382003,0.058744420394164644,0.10929355023741323,9.500204715509506
2.2922337685531424,0.05155007876153514,0.11001141684240656,9.512412064561342
2.2928482143051223,0.05745488540922478,0.11556891301342367,9.50051426268599
2.3120933982868723,0.061036432794569245,0.11378895976003806,9.52098944710206
2.312855871957297,0.06608865222013093,0.11250074091437207,9.510426162590825
2.332139992711846,0.06948566713734257,0.11433007449194128,9.518096149019824
2.3328895454355085,0.07256728083618781,0.10365730459480253,9.50408061734795
2.3519944003515505,0.050336167333854445,0.10717925340275955,9.498942099124124
2.3528610890577317,0.048547494824381664,0.12028763735831834,9.497319694647501
2.372015649329738,0.049160479605634515,0.11725027475846123,9.500760711428555
2.3728852907747306,0.06869292727433142,0.11233814988569779,9.50602890486185
2.3918779350809323,0.08031103785013258,0.11466046312292898,9.505568338771813
2.392926392229831,0.06262663346300827,0.10560026994622496,9.514100334509461
2.4119291620708356,0.054848009164704364,0.10382019950573933,9.51455842972344
2.412915629629156,0.06126153084670484,0.10615721660008529,9.51964310233496
2.431804525399904,0.07688600852275078,0.12024701796968182,9.51545135431953
2.4329677093794424,0.06454007537412698,0.11598798494831442,9.507880234890505
2.4518380024736874,0.05292370972794509,0.1005722418246776,9.518968138316591
2.4529523034911005,0.060387650735372146,0.11424234177016747,9.509041011190666
2.4716977593618608,0.04757537718309076,0.12172837560611383,9.516960884557532
2.472925534995349,0.06890378700961475,0.10910569914257871,9.508361260898166
2.4916598554608376,0.07301877822196119,0.11595918730784628,9.514816007554337
2.4929079862774377,0.05445853218848946,0.11016550366843789,9.503585439610466
2.51161369438652,0.051544270156553454,0.11815671323530766,9.5087252549882
2.512985547728149,0.07077744480098982,0.11201843547512536,9.515161509119125
2.531646058903989,0.05947115711688196,0.11041809059425377,9.50145871608238
2.53296595744209,0.04442168344464895,0.12168105987409264,9.516286106384374
2.5515092946720896,0.05986047225887885,0.11115803147056523,9.50654905909666
2.5530064671410826,0.093238976620512,0.10696631116270286,9.496761951605148
2.5715630427317926,0.0748126960147763,0.11138346979246672,9.515418373460781
2.5729983522722293,0.06260792799953031,0.10163613859904606,9.504419509468988
2.5914271872276347,0.05850125352530731,0.1214174962591043,9.51244682306607
2.5930036243893184,0.07287908433094868,0.10531625094390687,9.493158848841503
2.611421893091716,0.07542450022994408,0.10660915268354798,9.511275344647228
2.612955245928196,0.07860103599024415,0.11153904049772388,9.51207347449968
2.6312845123048887,0.07359224525950056,0.1031179473538826,9.515214077455306
2.6329288634724963,0.07472388936378237,0.11254565729850184,9.508093272510703
2.6512871278671377,0.06689439674226287,0.10928136853169612,9.507912405649956
2.652929915465106,0.07067371267506663,0.11678661479946777,9.518866634791767
2.6711824027995776,0.07323755736982869,0.1076828152942135,9.508894629917897
2.6729055450568877,0.07574235112464678,0.11656423602004955,9.52308536979305
2.69113538847958,0.06171716244961271,0.11584511506301008,9.513016214354415
2.6929293198269915,0.0731085780376243,0.10486554605416136,9.503923486183934
2.7111956878965184,0.07230058268248223,0.09747316659312324,9.518534967754203
2.712990138662405,0.07032345908364177,0.1034681872940795,9.53320333820309
2.7310886837843844,0.08543134336290431,0.10937149564050805,9.54287669754923
2.7329314496115864,0.07928802705216458,0.10473511550022674,9.542449200929605
2.7509671403553675,0.05459665365162377,0.10517111204638971,9.554348665301166
2.7529192577186845,0.0575104972040362,0.10882248062882001,9.556303734499146
2.7710205998437396,0.08507884192111728,0.11460384473913598,9.555664918791738
2.77293678459463,0.07266720555463821,0.09703578910291183,9.561907864566178
2.7908953983802482,0.08038635290825212,0.0974757955362643,9.571419703820933
2.792913065297318,0.0683203069361903,0.09477974994927833,9.577402031680055
2.810870700497416,0.07190869851454439,0.11159504338966807,9.571674627168823
2.812828303312829,0.0813272329369682,0.10598878215281361,9.578722379129523
2.8307066161063577,0.05205148861697057,0.09408504005282059,9.58698309898441
2.8328265281411618,0.06453721894260074,0.11034937101963697,9.578335851954495
2.8507379391383085,0.08626745627677644,0.10561095599923333,9.581218432732653
2.852811763571691,0.06445157188970914,0.09966537764754416,9.585491599866623
2.870601144937508,0.046620464642724437,0.08425802310425186,9.58404892743119
2.8727795747449503,0.07059873834983911,0.09162073231592649,9.578695670517794
2.890608782546553,0.07547641560839699,0.10158745883778249,9.576767006354078
2.8927757989061993,0.07142762326781742,0.08877000530395388,9.57300375305347
2.9105164873406566,0.07308250765431192,0.08755436019352282,9.589378290136175
2.912779748897092,0.058796711829665546,0.10583588761903669,9.579332857903236
2.9305176918880558,0.05324142617577317,0.10485283295474321,9.568186484859911
2.9327349007109658,0.04621023776529205,0.10560729877317399,9.580193868114337
2.950381590617313,0.044025476357400214,0.096833687950607,9.582731379828452
2.9526969074007736,0.04578252998808576,0.10521200841191064,9.563205552504769
2.970358594874496,0.04478819232174157,0.10221430284670234,9.567437518738513
2.972643647796174,0.07997803206355322,0.10980684739885084,9.571234691156953
2.9902501836934223,0.06755410230144682,0.11615856484391414,9.571846757140241
2.9926766779498024,0.06303493251941127,0.10587336356533888,9.57289365147417
3.0102623791839127,0.06530342557199548,0.1011254928135013,9.561144502189025
3.012620431998462,0.07212180599289314,0.10110645975586335,9.557347803812974
3.030142043726975,0.0760440679929495,0.09176469420852676,9.571354451270945
3.0326600009141926,0.05320686942706574,0.09642507977656993,9.561212291636414
3.050198985858765,0.055397564619106866,0.10657309204607336,9.56313773924752
3.05262735032209,0.05122092366334407,0.1067264342291157,9.564764743475369
3.07006950371285,0.06734047244307936,0.10393946483999467,9.559275571058004
3.0726271312308318,0.07926403503276803,0.11805094023674696,9.567529449833872
3.0901373722872956,0.05977419668059015,0.10170166526287036,9.561313079538706
3.0926080008859564,0.03583003343880719,0.09969493348338208,9.562105561194668
3.1099789996091456,0.07661233229899646,0.11367253181642549,9.561977624544783
3.1125613952231914,0.0789460417981664,0.11156812535558965,9.55395096069153
3.1299259171919322,0.05870811720873128,0.10654152773125704,9.563891704685348
3.132488443051975,0.044992394950492516,0.10611619508118604,9.56332280946349
3.1497952922759365,0.059466969439502824,0.10013470642548583,9.554018189866524
3.1524567009707094,0.048997781686870585,0.11627389964327728,9.543062583955782
3.1697668007811313,0.05916612060150035,0.10401212286526386,9.53837349471362
3.1724138077429673,0.07549067350951484,0.10234575091830096,9.565484412529248
3.189701843336886,0.07296653070559615,0.10819352946457109,9.560181735852709
3.1924202312102166,0.06815267798061649,0.1102781389478329,9.54122068260372
3.2096820183889094,0.05094110619746909,0.09967972255478062,9.55633743362512
3.212390590401817,0.06298410717717487,0.10070913275528587,9.554386911608486
3.229655226607117,0.04830082315841106,0.11294898385972049,9.543414329319155
3.2324481273585377,0.05001652822158488,0.11015394748199021,9.543810714363742
3.2496912156023545,0.05355988959430411,0.10184047207461668,9.549599546069441
3.252421246386912,0.05216699279996545,0.0999667727750733,9.541616154923585
3.2695705943958915,0.05903819161527392,0.12423900275152822,9.540512595657617
3.2724213955119272,0.050656734874787994,0.11350726024925295,9.552248720525142
3.2896098128579703,0.040691617388569155,0.11752797047925137,9.543443724192407
3.2923602968421903,0.06657841101987644,0.08995882691480486,9.5560017481053
3.3094522234979236,0.05534550787616295,0.10522060406005494,9.548775333508344
3.3123904443424474,0.056440747998235216,0.09656202565416173,9.552889502246641
3.3295159448835125,0.05713741989564496,0.10737629801097154,9.552849849034974
3.332345474759385,0.05129463259831949,0.10462142009795307,9.568006310052201
3.349421028077337,0.0441712164021831,0.10868986766812164,9.574261611247401
3.352388382705392,0.041081767683680145,0.1009628349672718,9.584814283899323
3.3694551994254467,0.04782387478611916,0.09269152784552478,9.580282124174575
3.3723892744345414,0.05520878594373378,0.09388848853735475,9.579337979417188
3.3894442340720388,0.06552196970307425,0.0970318814566279,9.570284091806522
3.39247316839606,0.08349579573706274,0.09292293032106048,9.584458134850488
3.409529711497674,0.0680279331525872,0.10153525391272515,9.596983129444853
3.4124658054692047,0.055406625256035985,0.09054928742297577,9.59205465882225
3.429417381736015,0.04343961069180577,0.09352290759672559,9.591396756745555
3.4324688474996994,0.058181043611968686,0.09405111195750539,9.598170129784807
3.4494584615626724,0.05967809146092291,0.09889270501670469,9.593636451399133
3.452436628006857,0.05007959675381741,0.09505623264112621,9.609943663597893
3.469351674779912,0.0500641740190928,0.090474612936901,9.598308961586834
3.4724301667737607,0.0485271538476869,0.10472285985966226,9.603469245151942
3.489404106023361,0.05037202307315372,0.09930852017894591,9.605343799131367
3.492430323327916,0.05957580959289375,0.09142275906812514,9.590848027188175
3.5093069917205137,0.05346169704723419,0.095735299712533,9.598163827910714
3.5124548273147003,0.059808732678259424,0.10610243728920674,9.586460351291505
3.5293186452140426,0.06320465025956389,0.10231837072943628,9.58879689703124
3.532390316227561,0.05992635112435126,0.10547686661490745,9.58870963833676
3.5492011326324224,0.06150609524642045,0.09772475635119066,9.584150744826003
3.55238939396378,0.058654274785542394,0.11000492179619117,9.602669005297663
3.5692365851315375,0.06076107748261809,0.09418143412103257,9.57917634197845
3.5723555320302482,0.06788622836018351,0.10263918228370149,9.581210459228746
3.5891153541725065,0.04537734527880372,0.10236633626855834,9.593116003253199
3.5923155381625187,0.05372794850176543,0.11283578938235159,9.590639665251999
3.609130753178724,0.07293447398974381,0.10080066285401215,9.57716003414994
3.6123029468546166,0.04907491070000563,0.09648774547621065,9.57745949199185
3.6290470721232517,0.07106885954788175,0.10963280649084353,9.564365461557495
3.63234028735542,0.05611326682435319,0.10178367791787636,9.578921326547055
3.649115321108813,0.045521676975350166,0.09989138643150394,9.57842187968787
3.6523069343963956,0.0527151908801,0.1027578237922019,9.572778312185749
3.668988681908958,0.04916952907615799,0.10844294572902054,9.575585699805009
3.672300876864954,0.06445127906248405,0.11282068967681265,9.56285794627961
3.689033060127382,0.05481782159566467,0.10770973387692552,9.571362130015354
3.69228559756002,0.0492824930179917,0.09931752520685466,9.571057053713856
3.7089572387814846,0.06054008477608461,0.09030380714819143,9.568419908674503
3.7123224751446373,0.05569518569813847,0.10728997632416595,9.573518478595075
3.728983710642987,0.06039977942822784,0.10542901704767899,9.556703925846708
3.732256875004971,0.04452718538077066,0.10432952123119338,9.57836812189745
3.748863910442155,0.06991927767180772,0.10042929121448058,9.5540497353785
3.7522164939827256,0.0522856188773073,0.1012275321175446,9.559362866438551
3.768880333017854,0.05637611523493562,0.10295815306892539,9.560456085923123
3.7722040794599736,0.059291676956426766,0.10416441145552363,9.553006946355392
3.788823073661116,0.057849473477533046,0.09951065866703572,9.554202878044906
3.792237637263192,0.05892888033261064,0.11502971882534457,9.553022076079113
3.8088963959019235,0.053751442759192185,0.10579530042082375,9.554017430070745
3.8122269764982133,0.05378173324732266,0.0993655673238615,9.545692451137317
3.828810017965796,0.04203099607997941,0.10934559225483785,9.54015060864466
3.8322573341263797,0.05334582474159011,0.10913443840832897,9.55134517916863
3.848825414895374,0.0468086818047931,0.10050967182179256,9.54563533550711
3.8521546719269537,0.053368282737050805,0.10451350003514666,9.55054441100723
3.868700686693665,0.060058372384351286,0.09285625681685913,9.550838694650675
3.8721865919751814,0.05811232568166438,0.11679232877584461,9.548621396910884
3.8887860886998302,0.054135472940675215,0.11329959197689074,9.54405286705378
3.8922201611330056,0.054750006258466793,0.10200248164733512,9.550524980617482
3.908776285414301,0.051094016254015,0.11407927316797975,9.53927083794548
3.9122239981069122,0.05176720429840748,0.1099794386077823,9.539644588644611
3.9286771736423,0.04211156769255148,0.10861396623656608,9.531227871902022
3.9321166325498287,0.05440462494915421,0.10752872464666463,9.534233163005448
3.9485415800523613,0.05513608129866417,0.1031264192606683,9.533023613825383
3.952072650645453,0.04992933164134273,0.10323939451076458,9.548203706400718
3.968568770770549,0.049003453247431765,0.108286904197269,9.534511159090858
3.9720298194252734,0.052460198811438166,0.10793202559344678,9.529687017050914
3.9884506813126364,0.06006072022083697,0.10644773745330514,9.538852970940422
3.9920212728348514,0.06307065132787038,0.1073530330910267,9.533831163434625
4.008491387002404,0.043833366799989566,0.11222509927392824,9.531187771176535
4.011981561908075,0.060248029845261133,0.10853323120846894,9.520298758792427
4.028397860319036,0.053409756268598216,0.10824298205107365,9.53372081358877
4.031984664819519,0.045350228369778256,0.10458978777427877,9.53515917840965
4.048426294820035,0.057984998588795175,0.11227381919929559,9.53951346059254
4.051936436301084,0.04722386344559504,0.11474076360105284,9.520219729504392
4.068302620474195,0.045791965024343975,0.09728091785771717,9.530750590591765
4.071899220493926,0.054656626347567926,0.10631599629851762,9.519510431053211
4.088290145538881,0.05331279144797854,0.10323856197751623,9.540520418237273
4.091799592000459,0.05757593490868941,0.11084781538827662,9.528786390970334
4.10813903864804,0.04071465000267399,0.12168116057140202,9.537071999521133
4.111762279659459,0.05484019447764731,0.10628546069706167,9.53570998151942
4.128121780352577,0.07292909316443005,0.10737754057038673,9.526810404560186
4.131724484574044,0.05810223991538931,0.10342302699856568,9.515672513688175
4.148104706144716,0.05091431662734724,0.11075829569933011,9.527735282779089
4.151726405242008,0.05136296813524597,0.10750328416983904,9.53255078441808
4.168056841253607,0.04622080484007952,0.11703525757037064,9.54072636996652
4.171634529937186,0.05637290694451392,0.11920040999394302,9.518124973408955
4.187946788655963,0.06154017227779997,0.11004312158234862,9.517768322288592
4.191632946145348,0.05270229450595433,0.11966823112570796,9.518742054441464
4.207986003460248,0.051015559140330756,0.10849250828801203,9.506461629343876
4.211589887957988,0.04844411072986549,0.10085499222503506,9.522881522402166
4.227869654655302,0.05013030751767055,0.11725965803462093,9.527009165724827
4.231549541497328,0.050355786816377424,0.1070886477666571,9.513395027483996
4.247851209805968,0.061391486340190836,0.11323981594102826,9.507029997682281
4.251519497050361,0.0577690066222412,0.10624883409154857,9.506841696833039
4.267860452327385,0.06165029241266633,0.10373382070151999,9.520667764375148
4.271587147853482,0.05297620230692078,0.11002933351193926,9.51063041339536
4.287885227324586,0.047745282862478276,0.1104159673646529,9.51703649288472
4.291511595476912,0.045562058598592574,0.11163554157021235,9.515809307264457
4.307776407461122,0.05035320886003262,0.10568901037455726,9.505064956044817
4.311546143681891,0.05152702167103768,0.11660316358535704,9.52816404830964
4.327842304000998,0.053671856572692966,0.11523221568977449,9.508479610239938
4.331496712327389,0.05011081904328969,0.0953950488656816,9.505622268679906
4.347735090805788,0.058287401520794195,0.1103985500144406,9.518590605219966
4.351495721701091,0.054866611680672306,0.1195725199289639,9.514905423073422
4.367774809013581,0.05185604699144108,0.10348448474902229,9.520750028719593
4.37142298544701,0.05415487063375748,0.11370353775728184,9.523783347345502
4.387628274666089,0.05072260734053469,0.1138470259820425,9.518293488551368
4.391377758945988,0.055039193466229736,0.10885951477070888,9.505229255749095
4.407616792823087,0.04125083958060242,0.11238737055722098,9.509351158415173
4.411306453600469,0.056076805802586435,0.11184549669673223,9.508529643021106
4.427501274151942,0.05740756239110073,0.11248048020412696,9.525980874359227
4.4312679107014885,0.0485941282741892,0.11938883717393221,9.516561941097988
4.447557755364648,0.05725513856233213,0.10902950307793889,9.514388096180268
4.451278010367438,0.039623695536930084,0.10443522434889681,9.513733439707412
4.467494376849057,0.047211301144780005,0.11210165967166161,9.534116243432525
4.4713101632823555,0.05194395085239046,0.12187135145463557,9.518863531518445
4.487566394670793,0.04222157418695135,0.09872467769567551,9.537594293760879
4.491328582779406,0.05102655234766756,0.11153579024200826,9.535694710049318
4.5075616031031664,0.044007264682975826,0.10386611874385757,9.538241765436126
4.511378649691992,0.04883501541219769,0.100059288614381,9.54808985943436
4.527632342123664,0.05637811093733462,0.09808568381642775,9.548020686314775
4.531354938237622,0.06540720715991917,0.10207794645877574,9.568221178446809
4.547522639891551,0.04590177960968709,0.09627013951125206,9.568061123034362
4.55132077005979,0.05139257505783968,0.09904221716241661,9.580912754546237
4.567573442363127,0.05422154007304221,0.10852612955381975,9.572379736916439
4.571316757834724,0.04680474815868297,0.1157809268818923,9.564294944378647
4.587522747876696,0.05168058266153113,0.08693127358621515,9.578289144331123
4.591396207334473,0.06342124781703253,0.09616826566426623,9.591158533568416
4.6076327656164535,0.05805665036462355,0.10026327949961134,9.576171639498813
4.6113750298233285,0.061677589286637455,0.11012996064608019,9.590575984884495
4.627507889879175,0.05404811364416095,0.10139662681031357,9.576392911520502
4.631337862830241,0.05564768740054404,0.09627099644392434,9.590525197155554
4.647568115756154,0.053558940528426156,0.10147416155817794,9.57260979825453
4.651337887429549,0.06402836689085213,0.10711893237596813,9.569426626886704
4.667494877224493,0.059310374088339904,0.09540448540928671,9.585206757489747
4.6713751684806075,0.047073692178703115,0.09679321534154692,9.58566066082382
4.687588959868742,0.050566464588763516,0.09966003041699259,9.582006563517874
4.6913577625738405,0.06206790457599339,0.09679634066821155,9.576652867916819
4.707478117757198,0.055445263831236366,0.0998834577694892,9.558582337496915
4.711322462673385,0.05760622044464704,0.1024070081565051,9.577816562627035
4.7275001680405,0.04942297922305965,0.10308607582648179,9.561253287858168
4.73129123336295,0.048864773813878715,0.09338029146719808,9.579976802366522
4.747458877198002,0.04448765922756654,0.09715480538080885,9.571648341504362
4.751320523993896,0.057434009749173155,0.10175592231564516,9.55424129876142
4.767504405087754,0.056048779527868686,0.09748781939380873,9.559044512070514
4.771291218514601,0.061995863695406016,0.1061147998230669,9.566304149472051
4.787431889099568,0.05551543780366232,0.10638618883876982,9.57807164690586
4.791334220581261,0.05639491434276883,0.10968374739531045,9.554372267507635
4.807505877371892,0.052949161871411944,0.10245621302505435,9.562609904288927
4.811276391196041,0.06356658202147304,0.10576207088603522,9.557951431375573
4.827388737726542,0.05523017799744302,0.10028600077700203,9.555381376295024
4.831277499795496,0.05118860953754881,0.10785411807497128,9.540002271076307
4.847439274310411,0.056348329116649,0.10221611840411884,9.558209160370545
4.851219312542034,0.059533592766489736,0.10006603877300224,9.557627081574902
4.867327504201107,0.04886408490166731,0.11692216334856953,9.562001708149424
4.8711767650672915,0.04868285798175779,0.10268962070361011,9.539199487888839
4.887380066275767,0.062209868867354974,0.09537446070368591,9.536736067562284
4.891156909042817,0.05985603732737002,0.10665324204484856,9.560018942029872
4.907265016456355,0.057608892426652875,0.10405060372175388,9.554454144769407
4.911117235932091,0.057258444314638994,0.09987838925271625,9.54855693708973
4.927298301100648,0.05291629229611033,0.12173278117679151,9.558641546260247
4.931030950933588,0.048076201120476246,0.0986156511385188,9.546372665019478
4.947187171523992,0.04891296242197359,0.10459775860896785,9.537779444114273
4.950983877295662,0.05160373464053218,0.10037339698741442,9.543453877793524
4.967091661042066,0.05047197943224269,0.09741014555150382,9.538231896159488
4.970862595416445,0.040950321774578205,0.10785128322462872,9.544505377868807
4.986996261826811,0.046990624693035755,0.09773331876700783,9.532148944102069
4.9908113830590155,0.05162172892671731,0.10788177950411407,9.5497326747665
5.0069017519341354,0.05408778697444905,0.10906720598657797,9.546307956244746
5.010691430625783,0.06377239052869631,0.1025217177908603,9.546332529522486
5.0267581491950875,0.04701395839039368,0.10100381988013304,9.539021090136114
5.030565598429234,0.05433365690487973,0.10441209951674338,9.53735305692354
5.046643005329966,0.054846507071749144,0.10837979123009178,9.524842635912533
5.050445774011167,0.05353516137648832,0.10658265349214077,9.543348459830627
5.066543326129163,0.05385630582141539,0.1046723232301392,9.523751734623644
5.070480740488029,0.04915518474251757,0.096312772564648,9.52533440367105
5.086579252361323,0.060843526242392025,0.09609768653624819,9.526949041372918
5.090364068505645,0.04942550395424472,0.11100528132248559,9.52873239173956
5.106437690189678,0.06403052581169559,0.09909510600813275,9.538015761940075
5.110328556461027,0.055869174734028554,0.1096164516030321,9.544036297744444
5.12645681340597,0.05554527230382654,0.10969084932789458,9.524410174062028
5.13031191678339,0.04875004723184832,0.11450739689515631,9.529831744232858
5.146459680540915,0.054948025182680625,0.11200739423979088,9.53456865779337
5.150306337560734,0.0598036130938374,0.11400713497817531,9.532747144648818
5.166508765417081,0.06191973080930328,0.09854219788881827,9.519795547751407
5.170284858402239,0.05131718837951299,0.10807731065429624,9.534227641312631
5.186400429707442,0.06267254580324966,0.10613405772884087,9.521016587361041
5.190289029029368,0.047026459687238974,0.11240201785118566,9.524244574025625
5.2064549003734495,0.059393987852912854,0.11633390670539986,9.526959909606147
5.210230113356633,0.05349858732461464,0.10377933431517392,9.537441472675962
5.2263278875043655,0.0570308017747111,0.10356595798936,9.521482042088499
5.230160396037064,0.04987053501040719,0.11321010415030133,9.533966969675372
5.246357203858989,0.052114093631112864,0.11082196747771252,9.525476247640333
5.250171483955761,0.05430385917805118,0.11048738333566542,9.509151288162386
5.266358263627637,0.05807505084870932,0.11426357329349206,9.523322047066365
5.270219916782759,0.07095421738372361,0.12042408455433458,9.52892867094111
5.286370470131496,0.05223268626546291,0.10616659655072498,9.523217037124555
5.2901283726150625,0.0544190399896904,0.11108118117187343,9.51575688325224
5.306263235277942,0.05154055391929407,0.09808903311086267,9.5231842555643
5.310128031866182,0.06782151134639776,0.1135413188385779,9.521720965087454
5.326312892570226,0.0730784121952542,0.10457503447795888,9.52259677457531
5.330070537233587,0.07138547367757517,0.11654494935108065,9.530121054090962
5.346205291356109,0.050639923150219535,0.11291120393383867,9.521539631846684
5.350034262131917,0.043642090381545845,0.10185189281798974,9.537283982566557
5.366194509301055,0.05036782982828919,0.12084198381601056,9.525203024520124
5.369960445927123,0.04273076943849369,0.10126491766295533,9.510707949938082
5.386131103397192,0.049311724544695734,0.10608350535600465,9.505669657452717
5.389968006233625,0.04895637303013243,0.11030488147526642,9.506508422591867
5.4061753590747195,0.04087739145058447,0.11205153966508576,9.511368353097064
5.409910820660721,0.04974130756266033,0.10537967085556411,9.521483965098925
5.426101287647469,0.05679507881074101,0.1050145348318622,9.510008076642492
5.429943367327688,0.06284412408664966,0.1034927374277151,9.52241431123142
5.4461490049464985,0.062050931855538796,0.11089246109520101,9.518069219366755
5.449905768149611,0.05003756489510223,0.10368055950195944,9.535620486787234
5.466105946140804,0.05876016622714059,0.10408457029067639,9.51028761834448
5.469899066640715,0.05393229506865134,0.10596655214311174,9.52142563719662
5.486098749951349,0.05284401325333128,0.11758694682651291,9.521889771888437
5.4898105924387375,0.0579521768588144,0.10679512911030868,9.518918815992677
5.505993427806187,0.0612290460382249,0.1053189995301416,9.519688989749872
5.509767523738785,0.061755138511182146,0.12073065743766805,9.524606486265665
5.525984084862016,0.0541779207320236,0.1123474457896315,9.509465017231904
5.529683893681861,0.05062538100215714,0.10732639305318052,9.522491031836429
5.545886283150785,0.0662961370951057,0.11066721049684024,9.517950326121978
5.54968403524294,0.06674098241989672,0.10999397779312875,9.515649946313614
5.565933986514724,0.0584562184447969,0.11033448098424209,9.50673058399517
5.569635154856116,0.0480914527116759,0.11102803509737579,9.51045803658481
5.5859054424926144,0.04443579100027495,0.11379814348947528,9.510450586473844
5.589707986468417,0.046336699232994404,0.10687726763919467,9.511822823357674
5.605970880337653,0.05790054991958407,0.1204241665619848,9.512830562746132
5.609673001370804,0.05155664063380768,0.11134642602778097,9.508711241008792
5.625894606884171,0.051745444779065994,0.1123605304862491,9.507283639090833
5.629638616213044,0.06688965657171482,0.11564251462078362,9.507671473511957
5.645959059352324,0.058549600846747075,0.12255890297457768,9.49713382979332
5.6496075357112066,0.05968077693029485,0.11787670270861397,9.52077669157741
5.665845374719135,0.05575463623226733,0.11523084465511799,9.513809067029323
5.66957154097209,0.046207886093575345,0.10532661256015083,9.501616877633914
5.685876212903534,0.05976881997166546,0.10731955165887033,9.50316808803609
5.689529443705451,0.04620215842663442,0.10316939351823394,9.511507935273343
5.705802392188028,0.0604913271271172,0.10714431730831347,9.508169953610661
5.709537070649243,0.05136899151680617,0.12429103899041666,9.503340902670072
5.725852895979363,0.054797076087712907,0.10800196372829281,9.51632135519037
5.729478129080747,0.054150681005770904,0.11259643949585377,9.509644261064732
5.745815684483554,0.056437593921211476,0.12123492698196067,9.50525188621911
5.749407617986338,0.059196850255011146,0.10489459756596077,9.515565433750568
5.765718326154815,0.05452020383567781,0.11410095328644186,9.503171088144967
5.769439970844477,0.0474171791417947,0.11483006646912858,9.506264084197685
5.785827465775551,0.05230505523718674,0.11216386082811047,9.51315231762579
5.789522078442312,0.058087279714972295,0.11113295438038373,9.494326438235728
5.805905990745191,0.0615125778339693,0.116648871929875,9.514025648639532
5.809484937308078,0.051146426612836235,0.11714071809206576,9.505214769241917
5.82579864844985,0.057120664799689684,0.10502276117277543,9.511318295188191
5.8294452071114975,0.06241695181926993,0.1285821060821719,9.510123279476701
5.845854410570675,0.07808462796874294,0.11173867260550474,9.51104297261684
5.849450824338783,0.06310207796986443,0.1145756027724761,9.514556318503763
5.865831288849975,0.06344842240201583,0.11332560322367032,9.519132340148579
5.869462540721162,0.06505219077600935,0.11890768029923937,9.519881605960451
5.885878143655317,0.05156750816313611,0.11435058421307269,9.514688268407768
5.889424864239651,0.051429525026641595,0.11398064426055392,9.508765263372982
5.905834333307181,0.04350601375531377,0.12276686926396484,9.511388337118454
5.909461941696273,0.06219083120487436,0.1133700785986124,9.517132166793452
5.925890120272036,0.084577616054555,0.10868196651122373,9.52192759913141
5.929404758514187,0.06128353738002813,0.11392656740955592,9.521031713341543
5.945832940581231,0.06089051635195692,0.11044094707548274,9.503737989207421
5.949449529032981,0.07261876162010147,0.11865388688994245,9.515620204935995
5.965930358664248,0.06825732190559662,0.11449433943154798,9.501476721715118
5.96941160911241,0.08895698178500817,0.11064901630974011,9.524729054067217
5.985829884443974,0.07166694664242308,0.10763114406133069,9.507203952417237
5.989368991575464,0.05070821940534408,0.11016658611297406,9.508537509510244
6.005860157244503,0.055556624929484336,0.12040924351166757,9.503967900721277
6.009298818151775,0.0706581046595089,0.1060071363504717,9.495194318296535
6.025771132676922,0.0784488425011526,0.11504139065732598,9.509541734646804
6.02933391927722,0.0542036536073898,0.11374869416662557,9.512875090277344
6.045844331543391,0.05597057878745087,0.10762633574813481,9.501649013661467
6.049287468057115,0.07442016816970379,0.10571327272240688,9.51709970455198
6.065778965754965,0.0717878721202846,0.10987755738597822,9.515178485900616
6.069289525814413,0.04678851502915882,0.11173628537803786,9.506147935052274
6.085796399076726,0.04021362302256386,0.1099567011611117,9.510697418346084
6.089159598093633,0.043379508464382266,0.11518877614489646,9.515446944146397
6.105670087230992,0.06927510225528394,0.11834620906010399,9.511377049078002
6.109105519483511,0.07815716845029311,0.09922278985998188,9.515971854059083
6.125665638216544,0.0646951055828756,0.10780322320350004,9.53132721542516
6.129012700920394,0.07833919327159139,0.10420754411715592,9.501503994707287
6.1455760320602835,0.06104333604876757,0.1085114358429884,9.51816791172182
6.148923652904004,0.0635270669419326,0.11303254136562232,9.52108254838407
6.165508050152873,0.06195634644895841,0.10964353944108138,9.51947900526581
6.168871250900819,0.06104759963989693,0.1082498529562087,9.522030312956723
6.185434198585207,0.08160167666550082,0.12195256474852875,9.505872981773205
6.188759271396462,0.07583727239873365,0.11513917038318632,9.517943538889956
6.205324927832528,0.0805653692822548,0.11047939775419555,9.514545646252847
6.2085945617374465,0.0841550104977566,0.10717064641665175,9.509324757159956
6.225210534990506,0.061007467196408614,0.10826703023788349,9.502658899286411
6.228502045549177,0.06023666246636898,0.1140688774959198,9.507601955220862
6.245145512477012,0.06381136731346455,0.1052386636657606,9.518422543711159
6.248444254765147,0.06459107155510033,0.10984893115961264,9.510513518681172
6.26506962918527,0.07212832709975336,0.11226970029721645,9.509560513310316
6.268365896960149,0.08177352503634297,0.1124850532341704,9.503592623175813
6.28499270216371,0.07682540079268674,0.10733903368592894,9.511864810211295
6.288201055468722,0.059071114245669736,0.10194682035183619,9.533709645864604
6.304908812982534,0.08151246502656607,0.12288405042888949,9.510957663112405
6.308261443411787,0.07435612103446883,0.11168154913942864,9.510382494711743
6.3249612209232895,0.07571598817304855,0.11048106904222388,9.518726379245045
6.328155511853057,0.06858375296930884,0.11556664364085573,9.516478858317003
6.3448975533096075,0.06816757725111966,0.10008619930682815,9.514582930369368
6.348218012689692,0.06977411227626633,0.11443411894013042,9.49844970821951
6.364975172802658,0.06839537571834725,0.08962937552262913,9.507605568358558
6.368155690408175,0.08031622394377326,0.11652041119870477,9.50569615435607
6.384947416840741,0.06929034243912617,0.11061163604503402,9.508959745066507
6.388104789446852,0.07914745352817439,0.11175701786438129,9.511172280212358
6.404896964362762,0.08010016712054073,0.11213737664481452,9.511683816993502
6.408162176347361,0.0699702893620567,0.11146052729069422,9.506850887407598
6.424942729024312,0.07532882788700002,0.10649747573568115,9.51713264210662
6.4280237058564,0.0751125120088866,0.11241733533035249,9.506619754993679
6.444800295808148,0.06917410507379247,0.11049342836789293,9.505055210177172
6.447864126101549,0.08509686518973768,0.11299356643438775,9.521610832510177
6.464671321682325,0.06917630117052324,0.11261822414830659,9.507284576836344
6.4678269143117015,0.0678226026512708,0.11376566892837985,9.513307897415645
6.484715889962934,0.07158143898628361,0.10732928022948252,9.51375637489156
6.4877018218028075,0.06833188773448973,0.11550734647648661,9.512644500494128
6.504621880397465,0.06956173316506382,0.11318153586064891,9.511205154204529
6.507649326460938,0.0668163549171962,0.10748990429696224,9.496460780906935
6.524569749134277,0.07615195454126598,0.10997373535756932,9.522912570301147
6.527674026432701,0.06525435230504739,0.11411674704573602,9.51005751706232
6.544681154821543,0.0635315828343493,0.09648868050867102,9.513988049685159
6.547657165392397,0.07607532863730002,0.11439214987897361,9.514851482429787
6.564599791628158,0.06608876587541468,0.1160351843869505,9.510388055729678
6.567643451272257,0.07539255509126183,0.11979791037992461,9.50764820095615
6.584710701288382,0.0869109092632478,0.10810424134269278,9.516187846655507
6.587628637990398,0.0851282964422656,0.11651314323826224,9.516719311685325
6.604643482207424,0.07823797144998626,0.11537149379330117,9.520822218951679
6.607615969646105,0.07868605102362541,0.11329313416343233,9.510546484744944
6.624663508961753,0.07910550841803736,0.11926250819739133,9.512028224470177
6.627554273806362,0.06871044603398982,0.11800413549007112,9.51748289655652
6.64461998449741,0.07712044182736642,0.10892112276578388,9.524991016625476
6.647608536680154,0.07231867706044988,0.11525258110398108,9.515738944312252
6.664756563293702,0.08061380975343566,0.11010307821742372,9.506626810406052
6.667590294140961,0.0767193385944528,0.11692066237511937,9.525053456851621
6.684717528423401,0.07111816104201049,0.10729136629526484,9.511725387333517
6.6876376349140845,0.07517938052414605,0.11415951669329293,9.530240990160335
6.704788830439911,0.0811776908499748,0.11979157292084489,9.515645778958762
6.70756521437309,0.07782921227219246,0.11767846245519345,9.521983542428073
6.724728227100076,0.0762701585096151,0.11442689035452473,9.521237947121291
6.727502314723957,0.07072710048819679,0.11195495205012286,9.539526468736442
6.7446552663379515,0.07115548997365603,0.10776542947857778,9.544121391355059
6.7473902441820055,0.06712463702132235,0.1059965199707309,9.53790055075283
6.764548204204858,0.059447043876630946,0.11060818977711485,9.541749773513786
6.767241718970688,0.06674369673035946,0.1044244617042328,9.544665666766967
6.784502034317855,0.0673256226466491,0.09752425294457419,9.557678561920968
6.787179311957554,0.07636290765178032,0.08837495973632424,9.555582747257574
6.804461263811753,0.07529109153698361,0.09376811032591338,9.570394276347079
6.807239162698694,0.07549087890542441,0.10156200791611937,9.568053068928116
6.824597321200029,0.0854483558686538,0.09808833238732263,9.572606076461488
6.827215576268911,0.08004920361297113,0.10035032874219343,9.581094741220074
6.84454305985092,0.07598074355928106,0.08666419727071811,9.582740826244258
6.847228412361782,0.0775498463829231,0.10165738980379606,9.57625487963637
6.864661920998087,0.07413749402885464,0.10306153587950578,9.583124993247985
6.867208894929725,0.07635861382889207,0.10161334898860205,9.591859571152964
6.88462777222634,0.08210911479044217,0.09554537685469873,9.576565687639883
6.887259301549104,0.08288185131136108,0.09704348373153128,9.597802765744879
6.90472359249119,0.061946073164040036,0.10864749845704819,9.57738785468139
6.907214754540847,0.08421068341582454,0.09730531823503569,9.587816442557363
6.92468713377408,0.07065770887994571,0.11168044726795974,9.600484766282547
6.927249513859157,0.08196154212456287,0.08936728602981936,9.58377511689007
6.944747213078026,0.0696738246910129,0.1055477956107875,9.577984830917671
6.947191619014298,0.06737814954977293,0.10709856168532646,9.570423210398326
6.964699187100601,0.0770138819513267,0.10472705900284861,9.577792317322915
6.967206952895372,0.05681985240032703,0.11248253129980325,9.592805243539441
6.984776147344628,0.06721092179253985,0.09994654617976424,9.578028812387531
6.987119156909513,0.07320172934390656,0.0913463725526101,9.582873002602025
7.00468489110412,0.06957714291977947,0.11316377229269262,9.574019048360137
7.007020168092231,0.06979256067321168,0.09810562748071985,9.577688225222946
7.024602662976557,0.0811931692692719,0.10473948345734434,9.564572516073051
7.026960813666076,0.06880967071546477,0.10782172246262609,9.573146942091494
7.0446092418637365,0.06674923899473911,0.09272613013549189,9.570914589668204
7.0468930108839025,0.07190204462730529,0.12026149039210436,9.574458810931542
7.064626476437673,0.06194211908664532,0.11182378811846372,9.573183050922498
7.066834498112813,0.08253627486195002,0.11475540582469175,9.584243123339665
7.084589168522569,0.08050570168387607,0.09954290354557808,9.558918931374222
7.086866986691708,0.06446997375478491,0.10922665381438379,9.570902438990153
7.104658428226534,0.08522884772553457,0.10646749760668527,9.559678901931166
7.106806747664821,0.07402837897989449,0.10116775625752729,9.572059387916589
7.1246106901569055,0.06590481275713159,0.1027671444940881,9.569516923396694
7.126740124921707,0.07209346354211052,0.10932394501098552,9.55982035729682
7.14453899786752,0.0651232846923243,0.09481451584516744,9.571793736601116
7.146613846755444,0.069052327445729,0.10468265622798174,9.562061122057072
7.164433704879542,0.0687500417845354,0.10418881405165475,9.561192770391255
7.166531543272742,0.0690846917331752,0.10173214189897113,9.563193908081294
7.184442633028824,0.05565021649263986,0.10693216977155195,9.558329309740683
7.186383896253104,0.05760502126426192,0.10596370875073222,9.565556766041038
7.204307660337768,0.05943970494387675,0.10078940968383748,9.551543180729226
7.2061961537897545,0.05391779732591006,0.10788408714159319,9.564021341677666
7.22424027712594,0.05627315588375576,0.11518336379370106,9.546913310581962
7.22613314569255,0.062497065871081524,0.10720522053790635,9.560833543461264
7.244207833834512,0.05497833240724653,0.11124375424706454,9.549151782038386
7.246167702660145,0.0653369114297618,0.11052065795273518,9.549031409408766
7.264278566991326,0.06949180600890095,0.10440933838445204,9.548218189235506
7.266099965222477,0.06636066953623848,0.10369956744315577,9.545209172850598
7.284235870157242,0.052950355480008766,0.1005503467088052,9.548433684372812
7.286043129116946,0.07956996259460504,0.10032128733060464,9.541372369468347
7.3042105224015215,0.08755777512883044,0.1057915454774803,9.538222488108445
7.305927776600988,0.054217652005671836,0.11431796233842388,9.54936457939285
7.324107659588936,0.047082279982589986,0.11979218249584286,9.554841274591539
7.325746631811933,0.08770026781461306,0.11551541128020638,9.546924505344332
7.344017796865193,0.08118451318950042,0.10908583017121905,9.548051369690333
7.345642740516195,0.08335649909335786,0.1068141117977577,9.550397665705207
7.363970153159076,0.07405206686624445,0.10507075809833075,9.54856488786383
7.365569192086439,0.07873505429513519,0.10951857433571195,9.5526501240736
7.383905666681733,0.0664544509644184,0.09810172610001766,9.528686325820907
7.385468037505248,0.07451143299346011,0.10801769124647935,9.54190687634389
7.4038400013300585,0.0781055668959098,0.1128331793205373,9.542737265441094
7.405295855505844,0.0918213900728964,0.10020470297654398,9.553360246451556
7.423741120607598,0.0769295561582762,0.11538960005859754,9.540561751983523
7.425283705554481,0.07512559434749896,0.11782075482303653,9.537466785507108
7.4438084247575445,0.06542607677156186,0.11208798018801487,9.533057828773376
7.445133188044195,0.05424347872586587,0.10265804225600846,9.544185830245683
7.463743106026831,0.04191194935764057,0.11029916210173116,9.530010516480884
7.46506168477295,0.055357573429489666,0.11815093959464788,9.52734142282661
7.483720539031814,0.06899959944941404,0.0982418988709448,9.524608740802586
7.485106713717476,0.07410377969546159,0.11278361052174074,9.520402480465165
7.503830910735409,0.07550538635698226,0.10953927882314025,9.518347044101084
7.50504690849624,0.07663970415659162,0.12206842019380329,9.53764987371957
7.523796820006144,0.07552457072988318,0.1179717300983095,9.534909479079547
7.525093392706278,0.08186375763434156,0.11986516497086705,9.531839338909672
7.543952970746475,0.0640125670066571,0.11654388312636405,9.529586242236316
7.545047588019188,0.07134531528345453,0.10327161979934121,9.518546247636092
7.563919684163815,0.07050407611254517,0.09798748037117258,9.5231990029814
7.565082027338442,0.0760522809007477,0.10889397491811666,9.529809707115511
7.583995876463604,0.07462132234743783,0.11070181912521215,9.545719135628342
7.585005161382113,0.07990584778258962,0.11032116674449528,9.53014183477395
7.603958063564039,0.05192072682874387,0.10290877323371077,9.527104834582572
7.604979869801391,0.06873531019248061,0.10421248130176777,9.533888899043113
7.623999070196825,0.09094479042486694,0.10904896555981125,9.534440174522658
7.624835156446547,0.08188833773772738,0.1146801449928105,9.531588118565734
7.643881113517546,0.06937456661457643,0.11873456190192577,9.530832630384118
7.644652567586383,0.06194570683505619,0.11084304562367853,9.527532532008278
7.663834615861557,0.048503503512135324,0.10896524436289869,9.523062090314852
7.664700765668855,0.04773102313479148,0.10300462929509085,9.526416491408764
7.683922251777102,0.041030525358146414,0.09532767223319367,9.523391083196614
7.684607062712216,0.07221457773065815,0.10625705338441993,9.532420002257583
7.703927520236889,0.08984316195015442,0.10694573393357518,9.518993834500089
7.704674174519212,0.0731735813817475,0.10737318165356699,9.518523072858205
7.7240105460048065,0.06939268673700483,0.10704888200243266,9.528156123375012
7.724549649312844,0.08554713012627199,0.1035047733294346,9.536140439251295
7.744007060281162,0.06863067466396751,0.10776919160404277,9.530567878329272
7.744608836890291,0.07290737174944763,0.11994753069133549,9.52033418141331
7.76408774054723,0.07049151706192303,0.10944857116945875,9.52075594686756
7.764504226669656,0.07587323427432562,0.10556206210122805,9.5267911665012
7.784097892528227,0.07220008187788826,0.10704700657854452,9.521579865914942
7.784420770408188,0.07841453343937517,0.10080796892198167,9.5203014277867
7.8040827232718515,0.06781437559670782,0.11444991850700503,9.524501278250579
7.804463837953864,0.06766327650921891,0.10488246214943946,9.516024678568453
7.824200575365395,0.0697390955281463,0.11233556918507102,9.527511194179635
7.824379477236837,0.07591220220524611,0.11201688369394275,9.532956663662038
7.844145485605639,0.07429516037597993,0.10699776968571505,9.518474151928235
7.84426937901458,0.08484343958590684,0.10959087098282531,9.523414857080066
7.864076636385589,0.06814506663860252,0.10349896660661631,9.519919138983287
7.86419209254589,0.07379170700983895,0.113551229247093,9.533255282625678
7.884147102865125,0.06323358188661574,0.11266192424681057,9.541030270214268
7.884063473872138,0.056941622027569444,0.11751197791991505,9.534793303969444
7.904132134561195,0.07206878572437649,0.11262613971312646,9.54066532933049
7.90411625693932,0.05268814690591231,0.11058396627679447,9.553344380722812
7.924225822376693,0.04818031363279405,0.10108437622206205,9.544014603282633
7.923993969581482,0.06663083605990144,0.09943590085583803,9.559695352363809
7.944209467467049,0.0761892255066237,0.10208669400463437,9.54805457933426
7.94402969551614,0.07132881801982797,0.10927152874594338,9.565835290598127
7.964301211663309,0.0792459895361518,0.10892227018627329,9.575580976916246
7.9639219943469195,0.08385292118070962,0.10134285454196613,9.571524388055803
7.984316078167104,0.08161470460014975,0.09867704887377977,9.573044781281641
7.983841670034653,0.09075969740934954,0.0912800001374883,9.581712538197884
8.00431045531371,0.07199116502536794,0.09871885908085433,9.578163063082659
8.003838057914612,0.07285322345258655,0.08494734061826055,9.593188352193936
8.024440822821857,0.07913821582511314,0.09661216878542687,9.581730826406229
8.023805577840273,0.07505735737441095,0.0930560583091301,9.575697880037247
8.044456665419842,0.046121697479081764,0.0996988363570172,9.59180793619226
8.04373716622372,0.05502917789253515,0.0957259484609466,9.587955904360104
8.064507414867926,0.07401349889940508,0.11388569190247239,9.580946001798244
8.063657974410253,0.06292027497622146,0.09860749088573856,9.579859403728376
8.08449390054356,0.06190927515106138,0.09031453394665216,9.581603035136531
8.083643564652412,0.05933185287202165,0.0935395010042281,9.581794468957979
8.104647017257467,0.06075083768303714,0.09190961887674932,9.590615224855071
8.10358990573681,0.06438431760021233,0.10122926423219003,9.588594440299074
8.124623484936967,0.05597246872842919,0.09443277788860557,9.587364992169706
8.123579060056448,0.07046106735297018,0.09718256232667769,9.582593005691765
8.144786471433088,0.08411594814930579,0.11110869144848688,9.571647987512584
8.143639031061376,0.06560795382870606,0.11339917231464475,9.585178560874201
8.164857877935146,0.059259630019871376,0.10223089182558458,9.576263326810485
8.163457000484108,0.06734532250627803,0.10633708262972297,9.567298426415835
8.18486213744617,0.06392847310901495,0.09472156164026668,9.575090701873213
8.183373490517218,0.057019291725694914,0.10150439778273633,9.581115391880877
8.204856956158446,0.06451515237562341,0.11026086039517752,9.570065247549358
8.203249009168205,0.06640001936870663,0.11449684446617915,9.560217642752002
8.224817730123274,0.05776464407135911,0.10753004914833422,9.5657625340511
8.22321638003948,0.0643322175534869,0.10028140606462452,9.572026552048952
8.244895363822627,0.047317380147366854,0.10448282487153014,9.56561773923101
8.243158084342284,0.0619512655535775,0.1036513293720298,9.554882683700585
8.265035404170684,0.06312789278298284,0.10357045747310406,9.55838215036615
8.263194651856388,0.059078639844801224,0.1023738294465793,9.548479456689375
8.285154219497896,0.049930997828447427,0.10891945758035967,9.569812882172567
8.283050378059924,0.055294167888389034,0.08922531306203503,9.563125861728757
8.305162190355265,0.04302899970539681,0.10722063815249093,9.575695642381646
8.30294984469595,0.06384212813080435,0.10013843467350293,9.558191843368824
8.325164690430716,0.056991724869099945,0.1049151640694838,9.55319172494435
8.322829623955489,0.058659845479005455,0.09992894776350479,9.560064857708541
8.345127263041073,0.05413805715370701,0.10320971411865396,9.557817835916472
8.342732953219928,0.05046037404550984,0.09825346940054647,9.556423969978164
8.365210251151572,0.058724015615650584,0.10170068793164669,9.546150330184837
8.362576233803743,0.05048810282977002,0.10276753629809819,9.545183145042529
8.385222921165536,0.05606852190185738,0.09495780363977036,9.554752733138507
8.382453029462727,0.05344146899641953,0.11140822221111228,9.553236181574428
8.40522605821006,0.04509614207094187,0.10332976927583411,9.560239150153654
8.40233105209308,0.04203731159488215,0.1188140004195649,9.545831984758689
8.425192126121619,0.06133423768751217,0.11275396979397241,9.547665861828905
8.422228776351643,0.04713013827657682,0.09960664352059641,9.536140752387661
8.445274683370332,0.06100485822355028,0.09499165882948743,9.544144117164555
8.442109499119047,0.06645381284431136,0.11139107524011621,9.546984527569489
8.465297154653873,0.054118049382235425,0.10761156816359645,9.536861458352105
8.461884625171791,0.047958244695475126,0.09385513728745322,9.549291559596702
8.485232943075093,0.057640516588054524,0.08763576733838482,9.534553968854537
8.481710791021213,0.05330258606219795,0.09772384973541663,9.534928091159788
8.505257166502638,0.04501053028068108,0.10551304303946965,9.54361100598788
8.501552027247655,0.05447407289587438,0.11647863518823176,9.53110577363751
8.525211036377192,0.052623961784929944,0.10343822709732907,9.529863517675082
8.52131230085348,0.0492826097043516,0.12101206492940347,9.532644500449873
8.545235892564135,0.05207776940087329,0.11207080484659052,9.542632304945094
8.541322731043111,0.03957726337157901,0.11311000897768146,9.534818993585013
8.565404735581131,0.045080539902679115,0.10243108666675349,9.530602323571477
8.561117244452703,0.05506934104146993,0.0971770803586859,9.533027226171457
8.58542804773972,0.047216615249850546,0.09972373587685975,9.550069744198971
8.581132688677902,0.04959846522315213,0.10081044207028221,9.532909136578288
8.605610307950355,0.0582283665568639,0.10746141539907603,9.54564168333844
8.600997316528147,0.05394347516014705,0.10135778279654635,9.525043060307429
8.62565231581377,0.05535658477568794,0.1097016535962848,9.534752635159661
8.620804868154774,0.05672958562091184,0.1100708198017323,9.532872694111516
8.64567353965229,0.06065892817993113,0.10003455319324514,9.52520928646657
8.64065918188608,0.049083898486241305,0.10670895594141697,9.532173972808602
8.665681021632452,0.054450146988828184,0.13393883949082797,9.533435066136478
8.660525174070814,0.05173731537870477,0.11005423913991975,9.525876398087524
8.68576033560385,0.05795122025630136,0.11744812283457783,9.533458906981695
8.68026172549012,0.057823877895859646,0.11474680080639432,9.524403500524176
8.705805718467083,0.06674117808326106,0.11225593294747338,9.54322826038618
8.700251360674116,0.07828799221156214,0.1087317775689727,9.539939441070121
8.725998591084325,0.05467230566278505,0.10127906719513492,9.535610002750436
8.720101541418913,0.06668593244945888,0.11184608696694572,9.538397576065798
8.746099729282435,0.056543831264315,0.11657967155291904,9.525653720513493
8.739937511199198,0.050996640908959785,0.11668111741065819,9.5260315541919
8.766171101275127,0.045386101578505,0.11732144815493975,9.527971759476769
8.759758499957432,0.0487689369334967,0.11118995351335346,9.522025264480234
8.786183137805201,0.0663848862224314,0.1069146000314181,9.520422125333662
8.77959752396722,0.05668919965782899,0.1043930478119428,9.52622995705291
8.806327224634307,0.06888843528130943,0.09873402976490019,9.53208253574815
8.799407147845201,0.04393410885126868,0.11494266882619099,9.52832750653756
8.826439796075109,0.04620256176185387,0.10471047927244179,9.523143739966136
8.819223830296938,0.05635235608654245,0.110736216593934,9.524286686885205
8.846533567466306,0.05165970976523746,0.10582398510372144,9.521945281407115
8.839129348922487,0.04882431016683991,0.11118269268200054,9.533495184947402
8.866646885828553,0.05492068964857092,0.11407118344580115,9.52345518699175
8.858819880669603,0.061194415535441436,0.11249911321218552,9.515028913253545
8.886651851402387,0.06761456596354047,0.11803470039701806,9.53633629739066
8.878518262903704,0.055508812413540484,0.11227842004969739,9.520779155042483
8.906724586708554,0.05231029120117715,0.11062572424577237,9.53453563457087
8.898307985235002,0.049874510934609304,0.11898232835413873,9.510895804923752
8.92682519941047,0.049343991808715945,0.10906829035974724,9.517692890251707
8.91809251316354,0.05427716446028827,0.10289791899133223,9.514197761841757
8.946905998288326,0.052903781895811505,0.10945753602154558,9.533226165008061
8.937886018045145,0.04815258891110426,0.1137366201044441,9.521467810952162
8.967057618547313,0.055338426779875355,0.10694495964202635,9.516179956688184
8.95758308363777,0.05754956130543677,0.10909489007882019,9.523314597822916
8.987183932471124,0.07929258332256765,0.11369517447348328,9.516710699967735
8.977357324065562,0.059105751057719674,0.10634751470005346,9.512858571791707
9.007301466723739,0.05496483906548448,0.10115543872531133,9.529904196386225
8.997180220140253,0.05937760274727978,0.10676273929131766,9.520640711340498
9.027501976273793,0.0584445678001268,0.1053429775425541,9.530568486535804
9.016843033037553,0.054390224261678395,0.10847071106945909,9.515172695584425
9.047575300886823,0.0547093344200449,0.10621869211679347,9.516269761173508
9.036516321784918,0.05221732926983086,0.10766444442431804,9.533997765887705
9.067653542860178,0.054479039126110046,0.10903023567537783,9.516360749648205
9.056129801457166,0.06434505975429594,0.10481568962258138,9.51837365931364
9.08775040856327,0.07563298633235045,0.12648046185304912,9.513839091124796
9.075826595883562,0.04491547052187812,0.11403971566776823,9.499758626482555
9.107957197185844,0.057834470793382324,0.10950848837844943,9.520051477577068
9.09553318135445,0.08208932551437804,0.11644025434267682,9.506372642882463
9.128112466320438,0.07516452034245491,0.09808894732249414,9.522289499822156
9.115191234816423,0.07252920246441177,0.10474549036969424,9.517129543329622
9.148274619779253,0.0687768287340456,0.10253639823722382,9.522439872289864
9.134862742521786,0.08531642339123965,0.11465415293677138,9.524887190924572
9.168477516996717,0.06795370913783808,0.11246020979318688,9.514154828462601
9.154427798161997,0.049750079658597235,0.10140326822717793,9.509914015954921
9.188694839413618,0.05381318037175673,0.11074125013579923,9.52126293603838
9.174213012521035,0.05036977156238113,0.11554058424671086,9.519921915795004
9.209046014284063,0.06047614667641825,0.10753895419242442,9.510617400845597
9.19390811753854,0.06854692750213681,0.12063026679475078,9.520339553612637
9.229408604750095,0.07522515495387894,0.11583255488089964,9.515290789281437
9.213536214877177,0.0692469651465241,0.11707774528738134,9.52661103722119
9.249653296282295,0.08254572041283723,0.0990471381363972,9.510832485880522
9.233107675056704,0.08012343244009443,0.10647859995231469,9.520824290142244
9.269948564690809,0.069584544171844,0.11803787678387642,9.52584454199228
9.252675132953824,0.07846602458008907,0.12331196176104368,9.525967055700395
9.290186660243608,0.07200859824812963,0.11545999347427874,9.502531742977771
9.272215744105939,0.08405234155975488,0.11590723249626024,9.512102330012466
9.310518752559952,0.07668013171565669,0.11018239056116302,9.513526868711729
9.291707722275772,0.07524047810037887,0.11784054797806169,9.522524918979299
9.330841028058042,0.063186016956999,0.1083618269348642,9.521530485665819
9.311241229838057,0.059367959113892095,0.11408235623538494,9.523044947236246
9.351307315040271,0.08602698624093032,0.10909077560672426,9.51800818289459
9.33073871693743,0.07696143881258526,0.11993437349197082,9.515817119892297
9.37173863740023,0.04692748370225959,0.11868220310325144,9.51999287609609
9.350338837020203,0.05082724168890777,0.11038942464631947,9.526679900996633
9.392348396001447,0.04870168173805392,0.11038722396065972,9.514253150504572
9.369772212713766,0.042204550120096045,0.1066221058253805,9.509339677725555
9.412837708468208,0.04987034134371262,0.11092946126962086,9.525967750827775
9.389323636311602,0.05678008517807339,0.10520042148676788,9.522938763708561
9.433529517612218,0.06488146578441295,0.11197268106879231,9.529950191120577
9.408685563008492,0.059439580399059215,0.11692926493540151,9.532247406668906
9.454090856730284,0.0779060342476987,0.10710699926980427,9.518890232091364
9.427999902112663,0.07061635519808936,0.11364704289568549,9.511149417824704
9.474656435952742,0.05266035076333492,0.10794361525255936,9.521236723924414
9.44725050475001,0.0529000094456524,0.11874304550960976,9.513472941977586
9.495298724149903,0.05152401961070593,0.10642118480030695,9.517371562968306
9.466373929639586,0.06767180027693523,0.1025354225410031,9.510090209709505
9.516042301122004,0.0680155761601838,0.1252739389268442,9.512344716288169
9.485534300250304,0.06783710279487197,0.10198514159909967,9.52247904163193
9.536753998229148,0.06788483637231651,0.11049677591519003,9.520134376392749
9.504488282100851,0.07618547842542296,0.12171910665850529,9.508388942515968
9.557599665400737,0.07212831848914555,0.11095868160758021,9.50483713827743
9.523470037961724,0.06809972869401068,0.11434690143622088,9.514827339312472
9.578527250882354,0.07131452740140964,0.11194721816107293,9.50980925193476
9.542339608669003,0.08113193636267337,0.11272198095094252,9.522670296027908
9.599551914898761,0.08057766017273854,0.11109793848002368,9.513471623921031
9.561094157652885,0.06386652661523701,0.10891662033595341,9.514884481202502
9.62066707586183,0.06711052441470661,0.11587280887329172,9.523432768671833
9.579719141260792,0.07375908879837587,0.10979725970794621,9.497152544393293
9.641978103496905,0.06863847993970272,0.11344692347665909,9.50555390588646
9.598397994537624,0.07327952785849658,0.10485775549953698,9.515194736598994
9.66355028616484,0.07281675855093897,0.10967225169849477,9.51781732138007
9.616751554323322,0.08476218237769335,0.10596280984327533,9.522496253756897
9.685191554469851,0.07394688555519217,0.1133123245351178,9.525885014470393
9.634877798576916,0.07731240245626525,0.11471531606809686,9.51139267122366
9.70695775585108,0.05817577933599525,0.11136714331065588,9.521357809469386
9.652725812163178,0.07401673916902701,0.10956874111093336,9.520191329335049
9.729023636749945,0.06929375267718792,0.11478104268517439,9.520113512534559
9.670282832746901,0.07542555414991922,0.11151086127428159,9.520714085703961
9.751376993469378,0.0728649459563411,0.11728982328187074,9.50697003367821
9.68744230211355,0.08033667346676618,0.1146821531131959,9.512513388674831
9.77419172628898,0.08312731726740724,0.1207918104136527,9.514858136731801
9.70426715044762,0.06913283663060363,0.11011774605211273,9.520060205478883
9.797442511230601,0.06008773872288685,0.11868696755872198,9.51703592628857
9.720417665830347,0.07423889120909104,0.12109248703544652,9.519943223430316
9.821424298790095,0.07287034111491347,0.10878295803679992,9.526436216763567
9.735938045789187,0.07882737729047053,0.10631955438396341,9.512840749876021
9.846222401111667,0.07748214049465219,0.11556770165176015,9.514710769401534
9.750473202820585,0.08210961997811823,0.11107385154766038,9.513462580421335
9.872154809244705,0.07245587615431502,0.11055590443970086,9.522594805293716
9.76359887035951,0.06356179912897605,0.12298256628498778,9.526936897114876
9.89969065056465,0.0747095586940633,0.11308618711796464,9.520305912198785
9.77479859581339,0.07933059787503849,0.10623164954919061,9.516849055987317
9.929623492260482,0.06533741970166357,0.10868837009169968,9.52945716893181
9.783149981799486,0.08183256988642319,0.11294826761990558,9.52803626300738
9.963080550122191,0.07949868796038641,0.11829112032767035,9.512057404921885
9.786786529599599,0.06518714785520868,0.10735285410112812,9.526023026100928
10.002625318426688,0.06103134976057975,0.10771266671625589,9.51679834810366
9.782503926222322,0.07792679081702253,0.11412962652336239,9.519153209166369
10.053200639306846,0.07520858461886683,0.11680190602071593,9.512228880491262
9.762157589325158,0.08106869780547873,0.11272295343710187,9.526432576977585
10.12796038988203,0.07550488163629523,0.11109829783608537,9.512373382138064
9.702865319034768,0.06347127843858326,0.11933554322705159,9.517674898457075
10.273049480676585,0.07512859282320447,0.1038295278849124,9.503919370010456
9.496196886994465,0.08282319781874443,0.11621266283020372,9.531936890633716
10.833314257462439,0.07408517671275383,0.11347872833060486,9.498565312171424
