Time (s),Acceleration x (m/s^2),Acceleration y (m/s^2),Acceleration z (m/s^2)
33.375357790783426,0.049817371851883424,0.10166977459230932,9.59807511859727
33.35826087493864,0.06506374601852016,0.09262266124567663,9.61556424829412
33.39433154424807,0.04867281036446194,0.09668520418104602,9.601766058982015
33.37931139321549,0.047098426771524926,0.09074716440075045,9.608852002648442
33.413250478907685,0.0907250355822345,0.09524444522033124,9.597595010249142
33.400105548478564,0.2771761838465889,0.09839624563565909,9.614549782392679
33.43235201519986,0.47664808629619004,0.09214430215759992,9.615177520408563
33.420877071539294,0.4674344468460974,0.0962042946015337,9.609723039510925
33.4516950602322,0.12744472176909388,0.08800434040897638,9.599485439689078
33.44156478125409,-0.4020597822220809,0.08664441568722014,9.607692694930787
33.4711557767273,-0.9145066956670781,0.0799531941134163,9.581417168481666
33.46225859408844,-1.08497245628309,0.07747017021816761,9.572254810795467
33.490735381643354,-0.8732547585047995,0.0766594955532285,9.579908311759905
33.482810790445036,-0.42244249537915624,0.10754810064583152,9.598013730148777
33.51027960014336,0.0407247252639769,0.09987675152613314,9.591097674224438
33.50338074555026,0.4530285037189121,0.10591334034679419,9.599832762802313
33.529923086587715,1.057107736055093,0.12043876417840754,9.619881753951645
33.52381555553877,1.645391741541646,0.14232915677184615,9.605932182216185
33.549609230809324,1.9036806764238186,0.12146011498649677,9.61102258327572
33.544202590954654,1.8535398809222194,0.13553087955043752,9.615410000210568
33.56917928106308,1.3404509353602894,0.11496424156390382,9.595098727789738
33.564435274486236,0.46096558822513656,0.10158031911409786,9.590831026233367
33.5888859949744,-0.3086048543195779,0.1052551355150049,9.583440234087686
33.584750797936536,-1.129171357345561,0.0626814549034221,9.572346792356782
33.60850899529515,-2.136485494514932,0.05617661498911429,9.54479869985149
33.604979326025294,-2.976123445134289,0.04534661720451417,9.518771465512062
33.62818531643408,-2.750317440864662,0.05173119423998483,9.535100971702416
33.625133223802784,-1.6732323294137665,0.04996404157542588,9.535767295359065
33.64782319639082,-1.0402565205191063,0.06909514459436876,9.560242260536382
33.64524150382526,-0.3544907581575437,0.11462160867318462,9.561360302630161
33.66749857906758,0.5799512345430334,0.11505982956190369,9.569510507557148
33.6654970743901,1.9603160403522728,0.15541547801066344,9.630777805590869
33.68747158011159,3.391981746166662,0.1767607502540077,9.601532242725307
33.685734999155095,4.013914772000881,0.1625217232372953,9.611542799717789
33.70718215726205,3.4762115646840592,0.16966926499197413,9.581772490337954
33.7059382976982,2.2798988769679873,0.14515874809599216,9.60921026628057
33.72711461456708,1.143359193134372,0.11742259255485231,9.55973884644056
33.72620154877525,0.05002652414742461,0.11813580170910742,9.559679875051785
33.74706612960229,-1.2489095709102083,0.08186536903373269,9.532876533136
33.74634733010846,-3.0465460346638746,0.02498590443745626,9.518631924357416
33.76682449927444,-4.476957023038374,0.019281666780766128,9.490507492485134
33.766545078593076,-4.32154981128282,0.019558748784850373,9.505238191250314
33.78673198783325,-2.640170604493606,0.057439682204443676,9.521291399166207
33.78659572340219,-1.60081407978513,0.07208307436819593,9.521989743516452
33.806584904970094,-0.8584351461513023,0.05062737697197809,9.570851202933483
33.80682753677661,0.2380123441383018,0.12801698346677717,9.548577404774955
33.82651503839128,1.9969975700582077,0.12436269755519372,9.591781210965081
33.826842663121404,3.6762736464865546,0.18618401488681965,9.60998246150075
33.846264636571284,4.396766195272453,0.21178454921639367,9.636750376220999
33.84695097993149,3.9826170257817024,0.16207322580319852,9.572516206197756
33.86620348823484,2.7786736036917463,0.17210863707712548,9.570015614643278
33.86694823239216,1.7512694638079631,0.14370934505365968,9.566593948652839
33.886035456576316,0.7015687508805984,0.10336565469446951,9.565352719194532
33.887091591567426,-0.4539055463419523,0.1049502837270534,9.537274104274092
33.905961933048864,-1.9824700722027828,0.05528405620112121,9.537668454173158
33.90716575339027,-3.730735517371591,-0.007989389878400196,9.49693454576465
33.92585911862316,-4.7677191776693455,0.032386618362323656,9.49875381165148
33.92722042852783,-3.7808768807093065,0.03925083519261929,9.51267645562978
33.94581407822437,-2.0244244588978457,0.08047469150260622,9.523843181572461
33.94745522832248,-1.2951495233942691,0.027667327069047266,9.51080913192132
33.965925173088074,-0.49350018123335154,0.09841972200972174,9.544482402086876
33.967727865149755,0.8019683083467556,0.15461129287993802,9.557698472841967
33.98589217029088,2.615933915379307,0.14031454952293912,9.587779891777842
33.98771009451811,4.006572690943436,0.2089791071869995,9.598370274015217
34.00573723810663,4.34206366695324,0.17642809402905904,9.59544350031996
34.00769778081828,3.5490058186557776,0.1709420304608224,9.574598872429005
34.02568214031751,2.417580352452779,0.17369801713721314,9.588557032709588
34.027758442546606,1.4329541654154478,0.1250496107500947,9.554192455467918
34.04552328251069,0.3044146339617226,0.10931879804000676,9.542171918299346
34.04783047681399,-1.0591042255999923,0.0884416697994583,9.519849762934793
34.06555127821544,-2.6998151455305854,0.032070312349619566,9.501804263886575
34.06786841372089,-4.183933011000073,0.017198093030225937,9.491611836534958
34.08539635318299,-4.580986208356061,0.05257365989469664,9.504363266595748
34.08789998524903,-3.030112486437801,0.06460392079743936,9.534927245044003
34.10530132653191,-1.680800911377904,0.06467384881468638,9.471917710231939
34.10785486147823,-1.0650782076024408,0.035822943857471014,9.520572688256152
34.12526247179429,-0.05358940125388124,0.12864930321293494,9.527556478970089
34.1280504824904,1.4512174642465683,0.12882665680744473,9.55391305453408
34.145268512555894,3.2048164792262677,0.17459302677217953,9.573673289267632
34.1479843472708,4.246969702378216,0.20659809109987667,9.607248585029286
34.16519397309067,4.20202797649105,0.16772625596813517,9.590890759438302
34.168150967172814,3.0579877808616653,0.1899625059512913,9.573923071186659
34.18520174649852,2.005189082718436,0.1388949821061453,9.579597317716896
34.188075036212794,0.9852907275890807,0.12662980410836422,9.543285354543665
34.205044144304544,-0.12878465098362663,0.12014897481297131,9.519813397729214
34.20813053550835,-1.5756954124524787,0.07631507759226394,9.507718190429012
34.22507817841046,-3.3290305500387185,0.016593890123307815,9.500872242952424
34.22812671542574,-4.535143464887469,0.03662529098718528,9.460888628659214
34.24493413576969,-4.177171078428688,0.028005730078830643,9.481038571656736
34.248198237990835,-2.3440563896630415,0.07147645836552668,9.494656757409388
34.26495509551476,-1.4158238243560184,0.05745358530778754,9.495720550366185
34.268100994706856,-0.7532672974023317,0.08072331100568295,9.522794749685715
34.28482179099937,0.422326826988461,0.1454111336306249,9.548885904139226
34.288206020132044,2.127599271235418,0.12851481907432843,9.568133467368709
34.30484138232479,3.6524411665028316,0.19863328192363253,9.595146244060409
34.308139176551855,4.33640829419284,0.19987537384518153,9.604255883380501
34.32477185190125,3.766935933609364,0.17343240520982267,9.554159780435388
34.328236641562924,2.6121827761320535,0.1899014436194795,9.55893258897729
34.344799991100366,1.7185112711070827,0.1377260743723613,9.553321100802128
34.34826588826803,0.5804028751765519,0.1265622598958015,9.536762223224823
34.3647974507882,-0.6270865600909908,0.10815605721135628,9.508399643378306
34.368342220638326,-2.225031008066445,0.04634463991048895,9.507634041937678
34.3847831098201,-3.759520606667664,0.007451931452897417,9.479777517987731
34.38824130078379,-4.621416061240075,0.025487001059372776,9.487794443570175
34.40469214359596,-3.5904029676571403,0.03904677454355886,9.524894324817103
34.40836387075589,-1.9303254864591575,0.07877968035709242,9.524355943831113
34.424695746836626,-1.2304103522653551,0.04797769779286449,9.536481751074898
34.42827684958444,-0.3573519721848935,0.10592922733837284,9.573937270426612
34.444639557357284,0.9948218667448616,0.1297872963446528,9.589333085505627
34.44822076165975,2.7289028535240956,0.11984173144601615,9.627768097171536
34.464509289696615,3.9999562756716838,0.20748030938053114,9.637721568770464
34.468120605800905,4.25654296405564,0.1462728487367377,9.623159508555082
34.48437637916034,3.392813013197263,0.16400317950510362,9.584099806312492
34.488066619019186,2.3626906053907293,0.15128443859769208,9.617467282714935
34.50427865385315,1.344959267764667,0.10414985858972732,9.602862732062457
34.50800666915904,0.19784755411764207,0.10849916569946519,9.59992135331391
34.524307387527124,-1.1180549648630622,0.09427238039598868,9.573386927367181
34.528173422484784,-2.7486645116210924,0.010514248806777647,9.558875670973322
34.54447259706928,-4.14530422277555,0.007868352593992545,9.535049641438563
34.54816897047644,-4.462906715891564,0.02945601914200058,9.54140909048691
34.564355128834904,-2.9508180884851716,0.047313096787906135,9.550573811517866
34.5681852997991,-1.6407228461592902,0.0615680492656384,9.557178454697901
34.58433516618633,-1.0136100287878946,0.04570048241225528,9.565464541747113
34.58812249256003,0.02780124082700278,0.11969948505427185,9.592987243377332
34.60432085575786,1.5477464781351102,0.1231524310315364,9.619071123425206
34.60807193868356,3.2044470461311194,0.17049439552180107,9.627544153829762
34.624278262250776,4.180669358277868,0.18365078502875784,9.611258295074844
34.6282062062287,4.029127455179355,0.14679071707954497,9.597848641375919
34.64440612691592,2.9192674982967373,0.19716587870912336,9.620968537959477
34.648315502962404,1.9506324434001687,0.1310093461215748,9.611373854832351
34.66442986875576,0.9127863734179056,0.11463818681846706,9.589564777428114
34.668186402772335,-0.2167289599595759,0.10962876621602194,9.567145112801176
34.68435373213113,-1.687227417875866,0.06544720742833449,9.540068168602469
34.6882206732113,-3.366435062489702,0.0032254600318834675,9.532830906355349
34.70430729551412,-4.5214179175036255,0.03013495415189505,9.512331638865549
34.70809179043518,-4.001745624170229,0.04326373135508833,9.552983432379735
34.724247416483564,-2.2822175303733845,0.07517850011519914,9.548693342100906
34.728185027648195,-1.3698937999949914,0.053432243736101906,9.542243067685074
34.74437726204411,-0.6824135359042773,0.08026597418141301,9.550198121086837
34.748145679257654,0.4896814331183554,0.14272575009918315,9.576265087931102
34.76425753902292,2.1860480254618646,0.1246858721311667,9.591894743671443
34.768045428754604,3.6846262925920437,0.18927952268145976,9.605332455873963
34.7842537999348,4.289631113952237,0.1803767441788738,9.6283432761854
34.78799519576574,3.694174770525086,0.179702346711611,9.603983643374098
34.80416002910564,2.538377154077747,0.16999854804114856,9.59391420663224
34.807977272705735,1.646933166642645,0.12920118086245128,9.601293100161328
34.82413870201555,0.5745064529799069,0.10483440487050157,9.562007034819256
34.82783193153281,-0.6618258993918107,0.09512095774254808,9.54530708142248
34.8440450247223,-2.2243508896504536,0.04816828636306388,9.517754364140343
34.84778505237933,-3.8074964497319046,-0.004183114810186172,9.516759032920671
34.86397775652215,-4.566217015119804,0.048789570789103114,9.502131141033798
34.86764202827871,-3.421377630363258,0.04279791158869554,9.5338415695923
34.883915759254435,-1.9001873450922009,0.06759842100031176,9.524968110838365
34.887702620634165,-1.2502509964203532,0.050383032077345624,9.53922032245344
34.90402663365669,-0.30634070485338305,0.10664825523893644,9.55572100647182
34.90765598759454,0.9975028380812753,0.14093495982811502,9.560646464483186
34.92397015773267,2.7484089027379555,0.13619844817173204,9.599748436249303
34.9276830543472,4.050196073757233,0.21302055969207326,9.61673420187483
34.94400096146878,4.218979864006043,0.16639085580817353,9.59092113048503
34.947551018860075,3.249358722459795,0.17652922290923664,9.579688898614005
34.96392225015214,2.1994651418523685,0.15849578259575606,9.590124131542922
34.96751697313769,1.2625002198578579,0.12058495165638304,9.559483802227449
34.983879602558,0.12722400280052665,0.10947778527478716,9.533722704819857
34.98737211548909,-1.207531230021709,0.08566082080405817,9.523612846659065
35.00382743188222,-2.7908992614776422,0.028918546699863355,9.49698371299717
35.00736332972323,-4.216048221897756,-0.00808787548058698,9.480686561707225
35.02385110233621,-4.404088144718937,0.02999734971274141,9.498765403310587
35.02724978510205,-2.787825869923942,0.04331073620980888,9.515983741239465
35.043808119908626,-1.591253736606979,0.04696618164794913,9.502333161480085
35.047269888394005,-0.9454591142853841,0.05400109284964254,9.526793433048875
35.06396094340586,0.09417598551571058,0.13510892219879328,9.539176278782936
35.06739256660444,1.607670009650566,0.14041240590552295,9.547686656636055
35.08409459279014,3.264877163245223,0.1705730439287218,9.582028381128355
35.087445980863436,4.256188505989234,0.19379492345154534,9.61666798415544
35.1041270960504,3.983659856966916,0.16204001580353009,9.561258858530245
35.10729395232718,2.8118009959917254,0.1802660279614738,9.576367059627685
35.1241163979013,1.8563138876440322,0.13930870242799337,9.573218011665992
35.1273458851596,0.8541353514821598,0.11730458125338396,9.54548751667052
35.144152953902065,-0.3026928270867926,0.10777526830041258,9.530904123833412
35.14722470811338,-1.7869378121490025,0.0614064001285238,9.510587943465039
35.164211462585726,-3.3939787820057274,0.01526078024095914,9.505118566939494
35.16729444445074,-4.544581545470023,0.030504801415301944,9.470381168458845
35.18422861512794,-3.913855071702233,0.03291680849474831,9.492435211104901
35.18714995244893,-2.2005732184696454,0.05997853911508127,9.503503388745237
35.204209751167696,-1.4093354864671488,0.05837576249862719,9.509211562857141
35.206998990291424,-0.6382009797556275,0.09050556273753849,9.529609344159754
35.22422282553332,0.6156947230238069,0.1564465692422469,9.534295972280795
35.227047603500154,2.269100840624057,0.13200530179652462,9.575859008057947
35.24433819142051,3.7477932663724056,0.19475465623488064,9.577501740843935
35.247093044390994,4.2977957854313775,0.17097605521516143,9.58623860839462
35.26442304381604,3.576243751259194,0.17743771187995916,9.546548199655737
35.26698850207665,2.4451780563641985,0.17794339785673455,9.568515753673113
35.28447965613541,1.5251330018244387,0.12431667791440063,9.55805680864055
35.28708384022656,0.42133945450475063,0.1094420981090243,9.524051473990934
35.30467749862358,-0.8146832579424251,0.10013202014714705,9.50826586947171
35.30699255582465,-2.370254790135855,0.04622350843284135,9.495492459261419
35.32462407342981,-3.9286063265891924,0.012520261994363973,9.480145949722774
35.326852004394674,-4.57227277610721,0.035994374824208815,9.479611659179985
35.34459280825973,-3.2538996413509538,0.05825878547517288,9.489347113684527
35.346651806472906,-1.7838129830045655,0.06142524824718982,9.490469339504768
35.364580768785665,-1.2028438115188211,0.052301713257007366,9.506714420216595
35.36664320092258,-0.2416585973698204,0.11698130601364459,9.53517893114811
35.384653588419624,1.2043930945248575,0.13928042987956465,9.553683929148916
35.38650503289975,2.9081012909115405,0.14819507383966687,9.576536992362337
35.404697376844005,4.064584754896907,0.2007107706757877,9.582387703115243
35.406324855561635,4.223195358461831,0.1790640479688184,9.606762724146598
35.424754107550164,3.176832652030407,0.2060063197463809,9.566249344979301
35.42635427210711,2.0976680781063406,0.15491667500177914,9.59574817693026
35.44489937318704,1.1379931022249705,0.12904737408102648,9.536641077544637
35.446370682809814,0.012745532418440366,0.11122832166795818,9.52526915128315
35.46497825352972,-1.3910147478389607,0.08033245957560803,9.503910589441166
35.46617939791178,-2.9984116293580434,0.02480407497030171,9.49920516410988
35.485023410887315,-4.3550770673367545,0.02909992032951611,9.467177330796565
35.48610066788285,-4.285496647500823,0.044322066780625315,9.467705176604449
35.50508667427514,-2.605054672862524,0.05001607789645101,9.498435805234902
35.50587420377476,-1.542085922725889,0.062396105224385524,9.489476248964777
35.52516195478358,-0.8664434727630309,0.06902888877283689,9.513438883678173
35.52582062501102,0.2344112087437031,0.14837522143379175,9.536646691177689
35.54524459920947,1.8298047662969679,0.14020072156426225,9.569679100264514
35.54564247730965,3.4642077098053266,0.1895134752995435,9.570485468755544
35.565327752642894,4.268225415846107,0.19800293142637368,9.565627629347837
35.56540290354886,3.937777641476923,0.17327734178019005,9.584016295930764
35.58541229549799,2.758627884054273,0.1992896472667081,9.568013055486897
35.58536248553115,1.7951612333587321,0.13801429599025897,9.568675020881319
35.605560985223754,0.7587732672279196,0.1274198832129358,9.525723459890225
35.60512381458035,-0.3944684670026482,0.10870007585285965,9.521658415262602
35.6256477531077,-1.9468440880784406,0.05620413858071725,9.50832302901438
35.62501063106619,-3.6093101994609156,0.006998181891571367,9.48573998389121
35.64583664570953,-4.56979756475292,0.030889212003546954,9.455750273065888
35.64490483241266,-3.762029461060907,0.012909490092118562,9.479946331958224
35.666050617350265,-2.067042651104769,0.06233496531982556,9.49405553835401
35.66468181033235,-1.3319250484150913,0.05311969759271685,9.489291948378703
35.68613380174195,-0.5076699805806322,0.09284767482050936,9.530211357639779
35.68442374288164,0.8153198641942577,0.14966586515296146,9.535848056703045
35.70627148268474,2.487563112853289,0.13716518096632427,9.574823207231416
35.70411236444276,3.8735785012842854,0.2149341216938137,9.589363245682316
35.72641577514285,4.319599793383115,0.1849968880461082,9.580730609370121
35.72388220518791,3.5364163207318895,0.18703044938490138,9.548959996616588
35.74660302786852,2.335759596805796,0.1768470923499053,9.557386744949934
35.74354812784629,1.263047216885333,0.12631686108743717,9.54559513844276
35.76677547472235,0.08799504863153455,0.11088838621374245,9.499256562975708
35.763235714248864,-1.2249329315396122,0.1102384600851337,9.50462089509675
35.78696594274311,-2.76917455171543,0.041102234645416964,9.487522097328984
35.78283158018357,-3.9610711490517634,0.0127912037859058,9.461338572775444
35.807196528636425,-3.833958120237849,0.07723835923303861,9.486339766656105
35.802470270883916,-2.254268035145077,0.07514209257215815,9.515321900676186
35.827424212532925,-1.0679242415410437,0.07779258074136651,9.500792569732534
35.82201287035349,-0.4266540873341557,0.07925686297089489,9.526606138876648
35.84785098224528,0.3760274432577139,0.12229989108642918,9.540154462920746
35.8417521365936,1.5512451869017307,0.13408878414199815,9.538857453910492
35.86822340841284,2.541047064036125,0.15757645221193467,9.563791841560551
35.86123469700496,2.7870627801510985,0.141471360723115,9.568908409494185
35.888690180820134,2.293481929136169,0.1594203108532433,9.534932058998324
35.88081075545447,1.730621581141508,0.15308045061107364,9.544551945049008
35.90916170809997,1.048090244149011,0.13081604190423785,9.529272521637589
35.90013107922226,0.09175280019091422,0.09688589990986385,9.534513199970784
35.92972008194691,-0.7403418384861877,0.11180274944306559,9.499441190963848
35.919554766819864,-1.3889706288470105,0.07917587740750001,9.529795616841243
35.95038814187075,-1.6849078185711222,0.06404881139290722,9.512579167989491
35.93891052370057,-1.7202044924398439,0.08444057470248605,9.497875576591833
35.971274780890184,-1.2239804298372934,0.09728845789605504,9.503780958048177
35.95820290760212,-0.4798272500619555,0.10067828235193216,9.522527919397792
35.99218044428464,0.1284477455790408,0.10030153577904244,9.512477716396127
35.977198896054574,0.4453650759008143,0.11852661072254549,9.52412331679375
36.01321448723057,0.698576358558664,0.12740332519066236,9.518525440002355
35.99598389147893,0.7826975024845768,0.1303585107467939,9.5342189113805
36.0343994170507,0.762738762056551,0.11596972432157718,9.535197076695479
36.01467823129937,0.5777015299205526,0.12599692584824687,9.535142167922887
36.055923398000644,0.3015068485801238,0.11588973134682648,9.527156147408695
36.03300120537118,0.055071487253108876,0.10681151001336302,9.514070612263732
36.07780689353844,-0.14997392129516737,0.09113393556020422,9.516123449391767
36.05094561983883,-0.1735860407043469,0.1158515785518815,9.524690020508878
36.1001174212741,-0.06069545499712325,0.10440624066413479,9.534147601996832
36.06820142002488,-0.0128355948869834,0.10228316759083882,9.52730161258735
36.12321438183858,0.05679778156922221,0.0996642765048017,9.553181938944414
36.08469868965504,0.09008734593225079,0.09917746269632631,9.552316312114412
36.14744150528812,0.07042915851003585,0.09903047437383167,9.557002299647019
