Time (s),Acceleration x (m/s^2),Acceleration y (m/s^2),Acceleration z (m/s^2)
11.783820303411993,0.07252457769066037,0.10835170977775169,9.540051354356065
11.759610334196925,0.07011977481320011,0.1160781371210406,9.55952572274431
11.803294799943203,0.07216679707798895,0.10292903320459564,9.563156093497469
11.77994418662677,0.06789858815192296,0.09692382965606684,9.562390289113598
11.822762287791644,0.07513741686155771,0.1065535866412052,9.58199750853886
11.800233419206078,0.07511779208358779,0.10138504916185433,9.559912927224035
11.842396942279242,0.07121739940742258,0.10519084758831063,9.583004935403546
11.820493381887186,0.07589378421813543,0.09954256462631328,9.583508640099138
11.86189870464734,0.08302592687053768,0.10237851110487775,9.565143136152344
11.840766258060723,0.07425108544732338,0.10217574970827069,9.577892338098666
11.881471913306784,0.0660592863439623,0.10867946019484254,9.575494779975696
11.86099226376223,0.07180340514620405,0.1035486770021201,9.576059283757715
11.901072768297947,0.06399858429444592,0.10540801082970108,9.572481971181096
11.881304959363005,0.068877864969036,0.10218930883742972,9.562484717472236
11.920683671563058,0.07551176289021219,0.10939912903687189,9.574695102668027
11.901512464622218,0.06443193068547864,0.09960690955040788,9.569921720994666
11.940364004784465,0.07037674395756872,0.0959104985468578,9.564108774975542
11.921780055019928,0.06851321765922347,0.10229375851470608,9.567500613847356
11.960007345601298,0.07673171813025836,0.10639694158349053,9.57729430748026
11.942056168369076,0.08033179993388678,0.10162400338956047,9.557481785546852
11.979747306244686,0.07444027166022024,0.11460700390896511,9.559348133093454
11.96221279932873,0.08069213781084843,0.10423146805986098,9.561403121313315
11.99931687236995,0.07520753695866243,0.12383345526481236,9.557024104240114
11.98232136796635,0.0702083268043873,0.10608828469721754,9.568280997535195
12.018957811089075,0.07318974829434963,0.1071330278476456,9.562935317623605
12.002566669466106,0.07684329619556791,0.09547722881037186,9.553693881680655
12.038658167725702,0.07740056201895665,0.10655490176194249,9.55895226923058
12.022775967830515,0.06713975501123885,0.10525564078361047,9.5580146536443
12.058481905906259,0.07109650591135773,0.11689682549477876,9.565956670614549
12.04299192846414,0.07722915522087546,0.11195123028905314,9.557362622911636
12.078150296584221,0.06665690418776427,0.10369079023509008,9.547961347378065
12.06312236584148,0.07333827719131959,0.11330231912919096,9.544036954222015
12.097816042817369,0.08282251258877163,0.10703776213848,9.55539223176114
12.083287309130506,0.1193102861803161,0.10605526567768948,9.558395366184417
12.117664538530091,0.2326751594170325,0.10946269354487428,9.549033531874857
12.103459806257883,0.3402506209789626,0.10851984428456272,9.545472801309566
12.137334916713087,0.3461064532233272,0.11016882134441842,9.550349155398935
12.123509818498265,0.25168414256015753,0.11637923517869314,9.551352501235428
12.157018811699439,0.14229904264992832,0.09871451213884512,9.541880149616478
12.143661215132026,0.019854833780192347,0.11340528741138543,9.548053026926516
12.176739995740856,0.019118257004038314,0.11144948566348135,9.535820803300869
12.163767362640773,0.035551911495970645,0.0926564041969373,9.546328206399046
12.196496508145781,0.07191809176991559,0.0997867023837233,9.53641723729133
12.183848330603317,0.02406290642099571,0.10424983219076572,9.531463409824772
12.216282318167751,-0.04997432095821138,0.10120959035670582,9.536044725450765
12.204032929611047,-0.12235174862992892,0.09973181234451255,9.537375683170241
12.236075572521733,-0.1374344888115207,0.1089245972316858,9.539013720643075
12.224175542590288,-0.14334588715219615,0.11693088870405233,9.536578183710473
12.255801922530448,-0.09279731428027896,0.09870321746714784,9.534335328303255
12.244233315666106,-0.06565608449258627,0.10893584148708704,9.526865279219939
12.275574500437925,-0.16334649299842816,0.08826486374794475,9.532226347184986
12.264228366221765,-0.25026661679360596,0.10063611594084954,9.533322790306045
12.295259239928997,-0.2619914358881061,0.10253997349441811,9.536107501502864
12.284379416759615,-0.21352287579208593,0.09558390739224092,9.540995146697739
12.315203700986194,-0.13422282089238813,0.0929706922538245,9.538856552980572
12.304551028913341,-0.023732797816651698,0.10055552734496423,9.547933198997029
12.33502918800085,-0.026132892142813727,0.10011194790895717,9.55736671807088
12.324724599768848,-0.04978674787431681,0.09507034852290541,9.562822405605699
12.354962248990024,-0.08699637601488998,0.10631127097050298,9.575003878346472
12.344879023044347,-0.08722348679044103,0.08878920756213537,9.571301106707773
12.374825063457102,-0.01553603209305345,0.10225441629853729,9.584144999865272
12.364985851049148,0.056015292296474915,0.09929363819250048,9.586173133607426
12.394616947787023,0.1333883044780489,0.11134316147024204,9.591898814673161
12.385100502800473,0.15592245851796876,0.09995531606860947,9.579290464351063
12.414390510195782,0.1576029402204893,0.09845094931827869,9.590891088720067
12.405097655227282,0.176633591691169,0.1021061475342988,9.587278442664296
12.434168703283952,0.2625257015069153,0.1058000543611224,9.592433051422283
12.425085470759207,0.31631552110025474,0.10525254126570602,9.593526568895353
12.45390023124155,0.38374106732159263,0.10724359069855749,9.59458407018815
12.445100342667446,0.4162715471377881,0.09905813353973437,9.59159334801524
12.47366905665192,0.44044280392214036,0.0953797937065022,9.594225925477536
12.465139663162182,0.5114266342483351,0.11262947502168741,9.59452764306319
12.493501610168114,0.5373228922305974,0.11385899817725864,9.59962046895717
12.485124953027967,0.5687406611378054,0.113939459601425,9.596426388849011
12.513235255714859,0.6545757526320702,0.10750286281625966,9.600799708403905
12.50510706830156,0.5925905784016897,0.10800194477379868,9.592962530577685
12.533031569903734,0.6236674677376804,0.12138327420404861,9.58898898989536
12.525177094090022,0.5284911056346486,0.10426836136791927,9.606556006306333
12.55285383721038,0.3510679207463048,0.10271152036265956,9.593854350333949
12.545239697212551,0.24037750832420635,0.10814026154950067,9.582612577268172
12.572809155511816,0.24464655250430606,0.11765386076509984,9.587747319232026
12.565393717636272,0.26587909835004025,0.10295334483347712,9.560432652562527
12.592612996228166,0.25993759185934534,0.10735526264403204,9.581834433427579
12.58535122630998,0.2284429736864982,0.11275778146033533,9.588782179055828
12.612460566155994,0.13686163237120832,0.09602305594790503,9.581753937508475
12.605409548720813,0.04468792026205434,0.10385183957520834,9.567756955737314
12.632245368565929,-0.03676822819362579,0.10506830894202242,9.575282377354736
12.625370722166966,-0.12627866739990462,0.10444585131759268,9.575031880200603
12.652046747252207,-0.14967094740857662,0.10270263122397581,9.563955532599584
12.645401500516861,-0.19460027602352561,0.09016499364464681,9.557657810700281
12.671854798812351,-0.27713814896438177,0.0831792459832677,9.563206188836267
12.665403658983923,-0.35590210034471553,0.10009765063221025,9.547597300912491
12.691771690412049,-0.40944215785464705,0.0927088218680067,9.5588465652343
12.685460080297489,-0.4803578673741174,0.09021626078323539,9.532162297527371
12.711584096695441,-0.6006903916509281,0.10083249092455712,9.545119935155196
12.70546962708819,-0.8274993875543086,0.08694805254870323,9.557810967822638
12.731383737717044,-0.6905997809786245,0.104614037769978,9.538126740673256
12.725506199435149,-0.5188076490371688,0.08496722784159665,9.537722251494825
12.751297334899593,-0.450181857737653,0.08286959779185993,9.542331997422304
12.745484987786623,-0.4226946705707664,0.09327975416170417,9.54047300920493
12.771124522374821,-0.3820222487515138,0.09518300159185467,9.544618064707342
12.765524800913306,-0.4277816716055391,0.0946092520763403,9.53205201593113
12.79094686562191,-0.45363584955541597,0.07883037144029675,9.549379890001735
12.785535701283724,-0.4571427415483489,0.10091387979815736,9.53893386176893
12.81079208810454,-0.389401451159711,0.0998520033317817,9.525039405809725
12.805476548797154,-0.2972068331397378,0.08437066784187934,9.544518976651739
12.830625453654216,-0.2773888550168778,0.09278975778035095,9.533974732146891
12.8254476218117,-0.18974507686974715,0.10875148720920888,9.532980028143372
12.850468606062234,-0.0647144409397576,0.11153843513644694,9.545524961747514
12.84548685573693,-0.032281030404640476,0.08557694427528365,9.524574062355843
12.870315688950603,0.09499817325355434,0.11849227575968709,9.55046181036226
12.865480860282373,0.2333425857347423,0.11857835588103938,9.533539863140996
12.890137310190378,0.3381609219323263,0.10641867400742518,9.549583298453559
12.885469527587617,0.3932863959805143,0.12073624759321826,9.538472470915464
12.91000944714912,0.5156839814025406,0.12801107197993744,9.543445768260257
12.905399194409668,0.6608273168263341,0.11351620630860541,9.538557866691152
12.929818060856885,0.7381437891079786,0.11891475232755368,9.5434738452343
12.925350266339299,0.7760332316438526,0.11398850229563984,9.541904345516093
12.949652145255717,0.8294747218517701,0.12330620776044601,9.553207503289746
12.945406619392081,0.8492040070103963,0.11651451000327344,9.541351344644484
12.96952601193875,0.9196689667954489,0.12164744295998685,9.552040674391195
12.965384538322521,1.0341927192725553,0.11569701268753974,9.53483319628724
12.989356734784163,1.1455944481721037,0.13641923143337936,9.545008348306322
12.985332196737271,1.2309496265494215,0.1250991673695521,9.525119692889929
13.009260470103152,1.1390964789962978,0.11877111653235027,9.528901833193528
13.005405390617119,0.8336631789663917,0.12374926849626348,9.539534761131778
13.029137267602495,0.6713422815318225,0.12381204442546134,9.555118839751982
13.025384284157932,0.6363303082904397,0.11756588297497454,9.543605267819016
13.048930772869427,0.7133472551389592,0.1262469569561828,9.524074953654008
13.045311283869907,0.6425201339470413,0.11290492012361987,9.532982410714142
13.068793636947207,0.5597386921317891,0.11838413497396119,9.541067819123736
13.065270584592845,0.40970677326398625,0.1262234376432315,9.53328359353967
13.088654056876791,0.2920039806919542,0.12355109697549764,9.535709403521738
13.08535661788054,0.1178374768320944,0.11412693128870308,9.512919846165643
13.108678237062753,0.04057904758816122,0.12436073373443604,9.5311047149856
13.105373386546125,-0.11561493298523227,0.09277742584831014,9.518257484756665
13.12857768713094,-0.3348858289746803,0.1052076984961877,9.52136366723366
13.125371500219932,-0.43530080964650714,0.09116761918399616,9.506445460727349
13.148416238362241,-0.5099172023847466,0.09180962701953371,9.510782718138712
13.145434965402757,-0.6280782915807052,0.09917146412303404,9.507217206731777
13.168448253608679,-0.6960563377667536,0.09196855033777813,9.506636004423573
13.165471399320603,-0.7958522022708713,0.09510831235205684,9.495679412730983
13.188316779865458,-0.9431749292051863,0.0714134646044276,9.529668351823757
13.185498204541984,-0.9640296244538975,0.09069539836541732,9.496613426461575
13.20815299125174,-1.0802873837914149,0.0782221142043975,9.505448931751515
13.205399321003801,-1.2045944877807675,0.08386147146114943,9.491640094716034
13.228004957088642,-0.9910124751655436,0.10117191716089598,9.511702715210271
13.225304859260506,-0.7104014669133984,0.0958279953754232,9.507016807206131
13.247823488571896,-0.5248334249881468,0.09055918596771954,9.512717934128373
13.24535855156949,-0.6390447306629518,0.08617491365270985,9.501219248631987
13.267836975041712,-0.6959536245833834,0.1003074011832042,9.510113536789317
13.26535531121873,-0.6908862241944206,0.11235139753069101,9.48856288768443
13.287699090211843,-0.5847482337675365,0.10242279794935037,9.506083002792149
13.285334631936227,-0.5256556873328749,0.09508903027522775,9.503467332733416
13.307577859691811,-0.39876447590546793,0.08133468281897627,9.503216449310864
13.305350997373832,-0.2724702123363335,0.10709702207944731,9.507668505093111
13.32746738428618,-0.18144875076969788,0.10084031110073009,9.50654154694999
13.325291426299513,-0.1256479026456108,0.08902557686105839,9.514659629352666
13.34732898686906,0.03167005533601894,0.11864678470133122,9.528820814703657
13.345248242417803,0.15059258119973049,0.11749356738176173,9.502975700011941
13.367239731854088,0.25491947423779415,0.10319523821258841,9.526181669365114
13.365299941790619,0.3990931225711466,0.13176195453079184,9.502149203871795
13.387107748919918,0.5589498140894218,0.10782097747685297,9.529055797424357
13.385206294775305,0.6272359477354622,0.12757914361252348,9.51741288665084
13.407020187314403,0.7892735317519977,0.12452467082604009,9.520309358641684
13.4052010111051,0.8145894094098673,0.13165040855794988,9.510110437645842
13.426869315915502,0.867237123689367,0.14384240896435282,9.515780814507059
13.425093017234696,1.0152496894528475,0.1380621523737804,9.536341795641746
13.446696753273827,1.0542479158049418,0.13225724147020063,9.517341079262815
13.445088554876909,1.04348521342969,0.13605930459864893,9.528333893252418
13.466605495472951,1.125808651195788,0.13575787571252662,9.52761606353563
13.465066385020723,1.1307772123031483,0.13048700582114117,9.513622286016862
13.486461998826401,1.2623685667399018,0.12809384451122424,9.525632336438111
13.485036912028871,1.2982196902428684,0.13981181401648515,9.528614761599592
13.506411181785868,1.0096495537448102,0.12082335949045543,9.52407413203177
13.505015542380324,0.7432175119876175,0.13551128662851936,9.537613710835194
13.526315177035602,0.7089616847251454,0.1387265017688035,9.510731762228728
13.525024809162437,0.6592005619707386,0.1197167560186707,9.521895231992591
13.54621211446867,0.6128299381128425,0.1274926632522392,9.505368494587069
13.545047163318811,0.5408623042300069,0.12512531605935776,9.519382081366347
13.566216314837748,0.4399769308643677,0.1090966760793457,9.525533257730112
13.565056335856617,0.3117795221100355,0.12417242455377876,9.516125504262883
13.586088160432787,0.2240638227276016,0.12167696683270374,9.527155733556866
13.585021644490233,0.11331965708699648,0.116808485848813,9.509482319079089
13.605961349181586,-0.024243765903758326,0.12090134101061553,9.500146015253907
13.605029038474358,-0.10437892983285259,0.11260369058975458,9.505853186270622
13.62596332305605,-0.29986074033776083,0.10930161552844822,9.50992791206419
13.624953441171339,-0.45992981265542443,0.0994014286599647,9.496434205293466
13.645822355107173,-0.495628992883898,0.10670944517216932,9.504178458948944
13.64498599376306,-0.5811358578065072,0.10174420136348683,9.489974110783407
13.665701589076987,-0.6617236209361839,0.10229610130970809,9.510584730983178
13.665019937377258,-0.7611148392450426,0.09942108217002471,9.474797125666415
13.685755736187271,-0.872479997565794,0.07348635253778889,9.499711528465653
13.685014767494842,-0.9744331733162787,0.09410992010024004,9.489439349835559
13.705619116828776,-0.9494599396649418,0.08808389652618061,9.496073155849238
13.704965738038434,-1.1817379666278423,0.08497903950245443,9.486257475109184
13.725481525232446,-1.2433755212311701,0.07663650307176632,9.481876875104527
13.724906751154725,-0.7860058745505485,0.10343971796396914,9.497070396457907
13.745354566376033,-0.5186846947542729,0.09258928431165013,9.513014470174586
13.74481758611328,-0.6271562607081366,0.09085222422107407,9.469281667688941
13.765260326773724,-0.7255148399548856,0.0904161916935586,9.51069686172056
13.76480762894291,-0.6703070144968085,0.1056073529523965,9.489039576813306
13.78511700684412,-0.5956131558682926,0.09154079718627313,9.50825012813361
13.784681338607466,-0.5430398558755556,0.08445831644312356,9.493546319900084
13.804934960553501,-0.4305204578200577,0.09420299909744602,9.497402239551826
13.804646470394323,-0.29474156884963637,0.09483654805371759,9.504745157300496
13.824846755754292,-0.20259014043994372,0.10821945800757929,9.506173164241071
13.824546760135062,-0.1425324935677069,0.09583057479936385,9.493829582333099
13.844754628739611,0.004108083588076982,0.11852591619534884,9.519632007862457
13.84456567277868,0.12251862368434721,0.11595468870671433,9.491951200651032
13.864671513116873,0.22085495299633007,0.10914615211827436,9.522981833137715
13.864586084883804,0.3725821099222186,0.12033597390993073,9.494473524237149
13.88469115843641,0.5417926397889102,0.10817445763563052,9.525085437910754
13.884556869122385,0.6113371399752544,0.11779431373042298,9.499530484588034
13.904544621755207,0.7351728538519138,0.1254864733689109,9.518113348506775
13.9045071899401,0.8275707293854556,0.11232894439678831,9.515425650329885
13.924407316860059,0.9053517777086472,0.1345497789746624,9.515781975111794
13.924476832566937,0.9739815118849899,0.14041123172206785,9.524642709140084
13.944371791256728,0.9907315992034282,0.124696731227225,9.532447464030463
13.944435625805186,1.0551412069966046,0.1438655834698542,9.509686451488683
13.964300901189402,1.1163042316348317,0.13018994522816282,9.524511771563807
13.964423162378901,1.1616948999217056,0.12864704221814358,9.528335107460725
13.984172528225683,1.207501355645328,0.13203590515150493,9.532995629217348
13.984414832413227,1.2963064122464567,0.16061292220309364,9.536666331024726
14.004075359802764,1.0481729242576616,0.12565247047270647,9.529705450742348
14.004361539606371,0.7610690577960204,0.1282032523030291,9.536792232553728
14.023997985453658,0.6843416739008293,0.13936348742946492,9.52317441030438
14.024258874537239,0.6969000960977844,0.12819732643202156,9.528141617839017
14.043835492982257,0.6712813123266107,0.11925562667538786,9.506611169066792
14.044184127019735,0.595000998916134,0.12844666490511697,9.513079121763326
14.063785379926417,0.4683615230391195,0.1232871562933906,9.5268125155497
14.064194704879032,0.3154754941178596,0.11626033016290534,9.512126844411524
14.083763836661083,0.21541172342104448,0.12608646080940963,9.520431242146106
14.084197588317956,0.1420143243593857,0.11321174177007504,9.506794648749308
14.10362175936347,-0.019416794541349834,0.12348303494763561,9.51795732085811
14.10409794433342,-0.082712886048833,0.12054142396965696,9.509500743186262
14.123443903629019,-0.24398533556178756,0.10589089252423203,9.507744889766798
14.124020485750819,-0.41008371640767577,0.10648165892296711,9.494219194753127
14.143354191927063,-0.48414419568943545,0.08334409983094354,9.50313518000954
14.143949742738625,-0.5619286920681587,0.10179819291327379,9.496213945637678
14.163284269920426,-0.6713853497596957,0.08628115030170319,9.5026624414323
14.164040060620744,-0.7445354547003414,0.09694365898322148,9.500449447458799
14.183348548773084,-0.845290825271329,0.09342335068042443,9.51395124296888
14.184036677813651,-0.9547654221420043,0.10017119148553316,9.500090232507002
14.203290155569753,-1.0157320628784428,0.07912717047718748,9.491558413440401
14.204059334706706,-1.1608848937581866,0.0883185852630679,9.501375920628186
14.223178346832105,-1.1254739777205398,0.087807314152691,9.50579221787231
14.22403858484024,-0.8581532950234088,0.10216598544302023,9.497588433019907
14.243216197230968,-0.6441613187519977,0.08773301381321509,9.499790088697285
14.244032070845797,-0.6255725652475829,0.10178075925933226,9.492088932041826
14.263088284003153,-0.6920955513850898,0.10043606882139125,9.504659182475903
14.263968135011806,-0.6981465140423044,0.10623120919608878,9.487483510135588
14.282957127111182,-0.6275823712249384,0.09572638831515504,9.499053777147203
14.283955767622428,-0.557859794515542,0.08836993143971072,9.50666697318808
14.302953751333217,-0.44982618208579533,0.10174489862677161,9.501189472592388
14.30391878453574,-0.3239693935964836,0.10411162531700177,9.505777451371998
14.322842612031495,-0.22141218371582358,0.10322335234814194,9.511982259456655
14.323799411454042,-0.1351383317131015,0.10096512166764222,9.505607536178903
14.342683196536496,0.007755589252889018,0.1143928860473643,9.527709234536216
14.343735844685304,0.15126307950848758,0.12439346365268432,9.494447057080176
14.362668173751516,0.19621277854304436,0.1015735982926607,9.524959442511056
14.363726692648314,0.3160827118056107,0.12562788027440686,9.516616643228394
14.382546224995316,0.4843006737795107,0.114237919003416,9.529952084466364
14.383675889913183,0.5903637885567661,0.12110530956496587,9.516682055756926
14.402402926581026,0.7266874646785193,0.1465152320975486,9.523528766898092
14.40364141383938,0.8470913194145642,0.10222162150541546,9.5231241002083
14.422373737595679,0.877914700683389,0.12549923184109874,9.520135270146907
14.423550470762091,0.9873642951289308,0.1351601008067574,9.528136527047272
14.442292182624008,1.0206260203853168,0.1276142947030318,9.510834491915716
14.443542535087408,1.0319659365022098,0.14628802220917225,9.531789103286245
14.462188507827012,1.0860921879487018,0.1342144095955328,9.53138073394278
14.46346842052823,1.157857448686261,0.13487553827729848,9.514342909612244
14.482027785598977,1.187252099945273,0.1429440191532819,9.52623878701592
14.483331707082899,1.2878407426893261,0.1422104777943045,9.548119430688994
14.501893988793597,1.0976839906118117,0.12192005232616655,9.512880139352454
14.50322963878202,0.7821390779426678,0.1261218780829182,9.515152918242354
14.521801472594372,0.674973914927559,0.13154455881541177,9.516909424533823
14.523240762688655,0.687813401913624,0.11982453335004901,9.519507786530514
14.541692618550684,0.6723365038631071,0.1182932359692776,9.520951856416145
14.543137620804364,0.6343455009319722,0.13275736331698465,9.520069997006463
14.561593114008875,0.520241986253006,0.11675535227316543,9.542757236756236
14.563061639469655,0.39566771570516857,0.12007108084369449,9.531956886378513
14.581464372655306,0.21579746641935568,0.12040946657890395,9.551942973471068
14.582972934358239,0.1471562194154671,0.10175907661402567,9.52916646436507
14.601413851915131,-0.009428537143686995,0.10063509428552822,9.542821755597316
14.602953706033702,-0.05310361387700446,0.11269546505023388,9.552847422192267
14.62130114608046,-0.2307879047892203,0.09024320394575236,9.557900282109886
14.622879374309118,-0.3922739160220454,0.10056869505146075,9.568114230805493
14.641158750194208,-0.46552486541275556,0.09635205802319449,9.569513655059692
14.642788667866094,-0.5293816200592304,0.08462740338179338,9.567896802346102
14.661027266045854,-0.6443020194168027,0.087341360063046,9.56282911675045
14.662647975924074,-0.7430227482878577,0.07727196155046094,9.560630838011729
14.68089939894828,-0.8366177174679178,0.08050276221593923,9.561683685249678
14.682682733097613,-0.95769329795253,0.08169024201430766,9.568664470162066
14.700954503540254,-0.9736428332603512,0.08629564343490095,9.570327205494022
14.70268004509933,-1.1285257112672478,0.08381933033782586,9.560493612726622
14.720940231696602,-1.2045240193303173,0.0827085822846986,9.565735108110008
14.722698442039615,-0.8970277998073202,0.08334456753136464,9.563047109477655
14.740855597419406,-0.657587254876083,0.08271051209009825,9.568350037330145
14.742633978016897,-0.6212024052963572,0.07928120269613219,9.583298303105666
14.760722769609112,-0.681818819977209,0.08788923045359351,9.567140125066102
14.762593092217998,-0.6802123183227443,0.09871207595849361,9.562431499385022
14.780710788816858,-0.651479190148647,0.0932394787040856,9.569882217290496
14.782533594354897,-0.5765161404727802,0.09026069884177766,9.573267731932733
14.80063333477322,-0.46902175148291925,0.08971307638820081,9.571349100899017
14.802515121057407,-0.35220924501690665,0.08470992770176247,9.568749174068762
14.820528892272161,-0.2434384567653444,0.09821117315417709,9.572498535059754
14.82249135736151,-0.16052561759492934,0.08368254439914104,9.553786765931632
14.84055162360299,-0.07156823802964377,0.10345030435569566,9.574610748468714
14.842465137828253,0.10625045259882814,0.10828207445526428,9.552918246472222
14.860419874960458,0.2454305973034921,0.09754053223768444,9.596063992985387
14.862394006654192,0.32532706685025436,0.11511580769463102,9.573132886537726
14.880296486425443,0.44760022216818524,0.11122854950179918,9.57246941423615
14.882380243852523,0.5586326161592525,0.11493050216766099,9.588772491060846
14.900338258357706,0.6843738446720784,0.12013237748603661,9.56827364794461
14.902383693131563,0.8473510354317573,0.11784416256915951,9.586402060013464
14.920331403469431,0.8920519261308969,0.13217053110939198,9.568998279946191
14.922406198273917,0.9875517744018698,0.14085481290277624,9.569842974657782
14.940215501464847,1.0051889948468875,0.11440461399691232,9.578295693485861
14.942302613605381,1.0231740205578739,0.12855301769465538,9.580737170974377
14.960094007477041,1.096227708059288,0.12945138323139851,9.582829098580785
14.962238428860715,1.1728296752603602,0.1258534312940488,9.586849685597805
14.980035919207722,1.1679712346527642,0.12315024374232841,9.576216272757788
14.982115351057592,1.2931821145224498,0.14170106971682678,9.590199693895984
14.999916050766371,1.1209187609873952,0.1257541431862527,9.563651833196463
15.002095454661934,0.8321332020353424,0.11674860076699016,9.566285153800841
15.019857278507498,0.6799497129740368,0.12055090936667076,9.566568811988649
15.022103734745306,0.6979859151138533,0.12059645990359603,9.545925958670423
15.039893605217449,0.6395049396377346,0.11142403975373585,9.55961348181139
15.04209550593125,0.6125395240376733,0.12034965842949258,9.5471279502204
15.059797091143494,0.5380921609859421,0.12446974062744913,9.562271353605174
15.062088811587135,0.47930888837554225,0.10782453933620605,9.54603613359189
15.079731992201493,0.2743496060456417,0.11750668553194056,9.559417747918774
15.082028834787355,0.14178905184717355,0.11572347514430173,9.551557549032518
15.0996473196752,0.0016866556364028187,0.11462269587585495,9.540292464967719
15.101916500445325,-0.0850971677305164,0.10461239403233322,9.545417038032971
15.11957646048273,-0.23078664469615248,0.09056587064052699,9.54604124753576
15.121933277273117,-0.36538842907529945,0.09771960250767661,9.542960745923184
15.139471061815023,-0.4279170089114637,0.09756390083392824,9.534070703197608
15.141882238772379,-0.5074102682850218,0.0876740657464993,9.543045936366719
15.159497117864712,-0.6644848510755683,0.09509446741130696,9.53586167590239
15.161852324677257,-0.7427287962461715,0.08662555556019336,9.519173052736917
15.179406913020136,-0.8047110767614347,0.07688295523841271,9.516571272965807
15.18180733601826,-0.9552424534730145,0.07706138281845981,9.526073409939654
15.19926897598771,-0.9453912232910768,0.08433586446854813,9.524302669082083
15.201705253616423,-1.0876168630339116,0.08668332790480004,9.535346248625162
15.219171051654856,-1.2167073216753095,0.07813879601243648,9.519511946954696
15.221561182766798,-0.9826396706165519,0.10476517703335235,9.521090140740124
15.239037855598413,-0.6730941338861938,0.09400380683365057,9.550595590241858
15.241499943279536,-0.6004562053344777,0.07702773649125258,9.526443176315405
15.258906976543283,-0.6653109734431787,0.0821758778005968,9.524017021245056
15.261473491933815,-0.7064055583057482,0.10481007147734646,9.509530900849066
15.27898692278884,-0.6714459394097841,0.09963253050835943,9.523822884327503
15.281516717298754,-0.5808083380851414,0.08959079025895783,9.519345203876934
15.298870453393233,-0.46856267206493957,0.10530676916058943,9.523534044654237
15.30136805354768,-0.3445351457185408,0.09347948342843465,9.529337837651838
15.318694337149855,-0.31930005134270417,0.09676726176233647,9.521662029361293
15.321211920982877,-0.31703369109259666,0.08280623846017526,9.511896274709853
15.338528841308241,-0.07467760769325178,0.11411798057358817,9.539991750190936
15.341083581528995,0.1325752576957869,0.12349953186974014,9.51781929116038
15.358461504964062,0.26551637820083956,0.08602797583830636,9.546558787886703
15.36105228177498,0.3791360486422694,0.11995539662645302,9.529463383227567
15.37837648044562,0.4906727953606227,0.1265625696275035,9.53520559873105
15.381054616736483,0.576925026530645,0.11953995295450229,9.54454209391678
15.398297438262542,0.7136060074168502,0.13313754229500446,9.540323720243327
15.401005747975566,0.8534590275598714,0.1098597583185375,9.546761367925981
15.418252241588798,0.8990778183700349,0.13947580778063995,9.52617215164191
15.42091247891928,0.9531003284826419,0.14074216914294488,9.544451362227873
15.43822337079291,0.9881317915679506,0.12513774059012164,9.552880069964548
15.44090011275775,1.0284024791480348,0.13795702634424845,9.538786425251642
15.458126529115072,1.0939001313868217,0.12606377377220543,9.536943776469144
15.460822618110509,1.1396280303663724,0.12841854517695295,9.551367735577104
15.477980310805325,1.1733198407170962,0.1480352336427598,9.545823288470459
15.480736000604843,1.325965358345072,0.14081968391248764,9.531802293762476
15.497866165797134,1.1740775796964569,0.13543512438041952,9.539216514261133
15.500594533597981,0.8415381695586844,0.12101770447174003,9.523451731317078
15.51776199422159,0.6939379733982018,0.12546101184038586,9.536831921102662
15.520541878503051,0.7218723243176851,0.1253597304601565,9.533860105826841
15.537657384479212,0.6773624579878582,0.11664007845686597,9.53173647948703
15.540458959482907,0.6172586576513509,0.12066673930272806,9.520014178223825
15.55756085259051,0.520405426695651,0.13079670710735486,9.54580749045826
15.560381520475895,0.4028750079088239,0.119526624521654,9.528086390998121
15.577451697360686,0.2212543137001926,0.12439906991726975,9.52408956892073
15.580231971097705,0.1599664216690569,0.10871723664230273,9.514505739205905
15.597358641977348,0.056696939738258643,0.10692687221612833,9.51932012633751
15.600246316117127,-0.06672514021108655,0.1267238030796454,9.51708374304008
15.617257071182594,-0.23255208658471915,0.10182827256342598,9.521161510789648
15.620175820782933,-0.3750330355856727,0.10555371540905982,9.523147871528586
15.637236290130723,-0.44123363082238454,0.10167317913328441,9.516721275521578
15.640113288821842,-0.5206846537860388,0.1025135588064474,9.50521486230916
15.657116771899776,-0.6406677202702126,0.10117193325161783,9.50885299952909
15.660056470876889,-0.750412492841366,0.09063568670046858,9.500444354914531
15.677007368507297,-0.8340692487354229,0.08366505767390205,9.496582524392343
15.680012314385134,-0.9563626623063932,0.08767708299759316,9.503418479926816
15.697062215447446,-0.9473577689968541,0.10148913885475368,9.497555328810858
15.699978653257764,-1.0888591532260936,0.07450283601966592,9.502788772268485
15.716985494594205,-1.2420946298138513,0.08297620915167978,9.50456736292722
15.71994055122115,-0.9881353344986055,0.09302326771835015,9.50609729842611
15.736867068721104,-0.6948190427459121,0.10632241926812011,9.519921526933986
15.73985231961281,-0.6200676409211621,0.09164190602878723,9.50985847497977
15.756754909281378,-0.6604079038363405,0.09648472575355482,9.50753871993394
15.759841155448632,-0.703080741287837,0.10598603145581086,9.506842891952564
15.776787216228968,-0.6554708092642424,0.0991407664687518,9.488182913787444
15.779740854285649,-0.5660993221692306,0.09832268334459858,9.521678357045566
15.796673874317445,-0.4589118400159153,0.09863438587804695,9.48668283365772
15.799720113280404,-0.3738591770802184,0.0925649257255396,9.50677401258988
15.816568592631766,-0.2642268422223754,0.11374294325174551,9.52985948899328
15.819594832910921,-0.18183486632175494,0.10962114630975626,9.495101646981887
15.836444459941264,-0.03727407675362951,0.10081866600829292,9.528418083510202
15.83953445197645,0.1159932513914226,0.1289581601996228,9.498995106626547
15.856367998964627,0.16890667038935428,0.10594111125090218,9.521670312366151
15.859435947700138,0.30073758113074706,0.11472718387993103,9.522577689257762
15.876348400758795,0.4453237116734134,0.12096090964110184,9.531457877979067
15.8794553446261,0.5789101243441812,0.11597898188436816,9.524765593395456
15.896260655954926,0.7052691710616078,0.1308164053077673,9.529315371488355
15.899452329284946,0.8351779183552005,0.11609179041943182,9.536105532581068
15.916316388082523,0.8519350008729861,0.1330611548839156,9.541884747431327
15.919424997197178,0.9532654173692344,0.13438465256998408,9.53767587739914
15.936226345670807,0.9938023882197687,0.12700943815848642,9.530425437174232
15.939452931245478,1.0168192631838653,0.1366103296109746,9.52649795021783
15.956298619974856,1.0782066482790222,0.12733118495467638,9.528809255072563
15.959472886376416,1.1628015747517033,0.136414493675038,9.53394655555848
15.976207689557192,1.1947629130517143,0.13735065600219892,9.54376851032007
15.979486698415393,1.2874903095840813,0.1406850935386486,9.541929295039361
15.996303364074624,1.2275101942463398,0.12950193487586864,9.528741337337147
15.999515694480108,0.8844560302249407,0.11345162179583108,9.5288198849547
16.01623909374531,0.6946796800544972,0.12099986030670054,9.525926898875806
16.01951057451709,0.6918375795346665,0.1285374088186622,9.524057015890893
16.036282946172857,0.6452672392619966,0.1169114919401217,9.537096755567124
16.039474788600657,0.6028563162093732,0.12992785181811867,9.512087633187557
16.056175396171742,0.5125473450724469,0.12011486233256036,9.527648163792216
16.059399061590625,0.4285011583964174,0.1138327583289576,9.510751930294221
16.076051951112397,0.2840891982151838,0.11709341713003882,9.528406159600197
16.079377670462215,0.15722185571937247,0.10887044928363404,9.520524969188068
16.096061394134583,0.019232351068194282,0.11942234908558695,9.520973017448336
16.099287481864838,-0.052467581813180834,0.12517705644703636,9.518651324162231
16.11598055806061,-0.18668013455653193,0.09284275094290469,9.529897480421791
16.11922271390985,-0.3998010687229534,0.09401075011809583,9.514695304512186
16.135879043059724,-0.4798243334985937,0.1000534942885499,9.513799649092665
16.139174400476815,-0.5375520653980742,0.09527158322803736,9.515723601032171
16.155749007286936,-0.6287488417745396,0.09726700943594098,9.51158898987176
16.15909921904029,-0.7357865230427838,0.09699171819531564,9.516566609787194
16.175720949374956,-0.8453191044624307,0.08776319566800934,9.498717057636572
16.179028751547833,-0.9770806387846008,0.0953318945916947,9.498491278952535
16.195702882554137,-0.9676575625990298,0.08326207619741036,9.50383821137028
16.19904601290361,-1.143730109110843,0.07551091844733047,9.49541264222749
16.215620188447822,-1.2077806795401296,0.09272845133009884,9.494769272936567
16.21898645531561,-0.9703635960740216,0.08823331478196729,9.50877519350381
16.235520932587285,-0.6849326253935419,0.08783766249086726,9.520508130295218
16.238923354265058,-0.5930644942846359,0.09091964207614224,9.497543849185638
16.255465438690067,-0.6420195057702519,0.08900253744894658,9.52234021468204
16.258797549919148,-0.6742145965344526,0.09818503219012666,9.512827383956896
16.275315975008976,-0.6174474068046529,0.102531602730516,9.526421814666875
16.27875005251232,-0.5563489603524622,0.09101607583485863,9.53821169621072
16.295342388152633,-0.49004460717469805,0.08483826280616341,9.531829260435968
16.298763331089443,-0.3833252532274784,0.08997826133542676,9.544161205106878
16.3153214807697,-0.29195269542422175,0.09931159067465568,9.56121789914561
16.31877177520834,-0.23130136545111396,0.0897573486608098,9.549723692319866
16.33527929170931,-0.08078533769097263,0.10224403988898145,9.568669123109101
16.33870604826134,0.09405690785819287,0.12657399919259452,9.571146741380185
16.35532179594556,0.18520474742019255,0.07884788577379523,9.581921516857737
16.358725577663588,0.27824737620404233,0.11337446571699408,9.575393583259249
16.37521212174434,0.4371483547304897,0.11252398877742824,9.573088248905096
16.37868507462646,0.5655901452947325,0.09143163450428977,9.601583543447477
16.395243118124274,0.7128770743768368,0.122792566548053,9.599152738264076
16.39865732731568,0.8603970569884288,0.10270775904062802,9.608675426397152
16.41510011503199,0.8779586263370808,0.12192542269121545,9.593312861359024
16.41849446840224,0.9421927307825059,0.1268153465694396,9.593853153572061
16.435009830354975,0.9980304374435612,0.11100203504954234,9.601484584078502
16.43843729447819,1.0402958537143576,0.1269390204010108,9.597792584498182
16.454931985688766,1.0986528505961997,0.12014469969103479,9.586038156185056
16.458401925392426,1.1556673008473672,0.13185947240066775,9.598204292072609
16.4748159752633,1.1972506422965687,0.13427308703636792,9.606228093893199
16.478384068941867,1.3365476356048598,0.13710267945113297,9.596381259452565
16.49486191493034,1.236969588486137,0.12851009785352832,9.58761368443406
16.49832369449069,0.8960566835302298,0.11606514813227511,9.589719441302263
16.514783582324252,0.6978776040821072,0.11116531666435117,9.594442639015856
16.518264630683674,0.6531197988656866,0.12335004533082669,9.585944815635143
16.534653361237694,0.6260515988109272,0.10413278866681061,9.588943985421972
16.538171800684058,0.6484600909142539,0.1179926989470512,9.588754053519716
16.554632479672957,0.5394375669293175,0.12068566001479594,9.589579122609127
16.558125345046683,0.3751984126854151,0.09208707574307698,9.567257023692372
16.57453541876311,0.24509444959879131,0.10834797826797408,9.571400613108192
16.578046054725394,0.17840239504354807,0.11108464292144597,9.571548740836988
16.594400069399015,0.06802848227475768,0.10964431801506225,9.56493141488276
16.598022933555644,-0.032666143307062,0.1168313827224733,9.569054279926817
16.61443478589547,-0.15041590515328862,0.08895367532470984,9.567532877063922
16.618040135515358,-0.3839006383502792,0.09356448425426313,9.567151365584978
16.634434262476265,-0.48392173839143204,0.09416759197596548,9.535800552736744
16.63799142491446,-0.5285253139556821,0.09313840121382998,9.562510027086196
16.654379080640748,-0.6240093511708941,0.09548633763440126,9.561661193466328
16.65796921679706,-0.7132053860297909,0.09252629328143955,9.567418949055762
16.67440933898493,-0.8067777192827448,0.0912600449195002,9.540224100858337
16.677938016087364,-0.9905119297298813,0.07268557920025834,9.542283406416177
16.69430149677492,-1.0202382740392235,0.08913713842154777,9.543376413738267
16.69783944854984,-1.1150586628018229,0.06926037780749686,9.52926059633438
16.714229353984216,-1.1969962863978056,0.0774342141135121,9.544510621021393
16.717791146690235,-0.9972588137724285,0.09100726650864494,9.53659873504927
16.73411628620462,-0.6748507502386907,0.08041922789087626,9.542957047579813
16.73776422850222,-0.5545026816594348,0.08909079031920168,9.534843131054476
16.754162177029322,-0.6058756734679887,0.08058998571309502,9.536560650852913
16.75776027114688,-0.6636500683513138,0.09185661911745653,9.533519455258444
16.774078777384197,-0.6855363351628909,0.0794395385322855,9.539348669541846
16.777656574561313,-0.5781236401041612,0.09373813829818242,9.547177521407363
16.793935687462948,-0.4720399642062596,0.08981786842522345,9.536659244480607
16.797642739041997,-0.3939459767227983,0.08212426334190494,9.539289577240343
16.813981431377062,-0.3285627388015721,0.09608822706331333,9.546120460150087
16.81758784381216,-0.23394833836639456,0.10455725427196923,9.54491031156669
16.833915849726143,-0.08909024333411657,0.10264672149793051,9.558427909244195
16.83752069817352,0.10752606084708584,0.1294914732341373,9.559409123605695
16.85381930396201,0.19773047036887229,0.1028471003096061,9.548214835806265
16.857431147237484,0.2647465834556999,0.1143208646375865,9.572030938215915
16.873741300724497,0.41402715667245343,0.10929714851818506,9.553134152716217
16.877380761178586,0.5461503373451082,0.10086407807496826,9.580714217590932
16.893654650739993,0.706394060211929,0.11708393598982533,9.568155953062396
16.89736178236619,0.8740616885346129,0.11219910610815477,9.596830056668768
16.913626249080888,0.8984922711945845,0.12617188436574414,9.58844867198244
16.91730459787646,0.9733132086828067,0.1296856514177,9.598878764026134
16.933564970169126,1.0130657592485086,0.11175158150404724,9.600580295138911
16.93726867814465,1.0583648421704823,0.12168419509785003,9.594257961278668
16.953589436710292,1.1008400985028537,0.12417123068215617,9.611527269977271
16.95722450918302,1.1811929818963225,0.13322608669359035,9.610805084189918
16.97348213996509,1.2259607896055322,0.11535762149120224,9.616177828266647
16.977144391677133,1.2908138518081012,0.12496659638635627,9.617603899526317
16.993357745836704,1.2359067651450109,0.1257438929774741,9.606012373735796
16.9971164304291,0.9196843060610834,0.10732791186160738,9.613836353445977
17.013372102778277,0.6917592909003963,0.11310249944623665,9.600904389437382
17.01704679558044,0.6676426141682945,0.13106009613956215,9.614935730522262
17.03333080848474,0.6307411323738314,0.11200893627625794,9.615952808123403
17.037018955837627,0.6014291704733651,0.12112559060685527,9.591081809829285
17.053213415080606,0.541217236340643,0.11362863981253842,9.612559245543464
17.05694938157192,0.44579155722250247,0.09551401784637943,9.608629002739212
17.073231795446866,0.29016313791755727,0.1074590205478577,9.600039600346115
17.076904131202678,0.1811792570413586,0.10394667386768096,9.591418997305203
17.093141253923854,0.06427763183971398,0.09840336742817661,9.590579139902754
17.09682423580726,-0.04967370909661966,0.10954012602142363,9.602440221907605
17.113015496176118,-0.1710616074980117,0.08717581832419917,9.599747382218911
17.116704557262107,-0.35514061548202175,0.09632120701161095,9.600657005467934
17.132908367754496,-0.4730656567433052,0.07517600015840652,9.56500454943489
17.13672071829123,-0.5442375618340556,0.0945941971010272,9.567388735845759
17.152932775384947,-0.6219962083232794,0.09940764799976311,9.595077606154089
17.15658897321004,-0.7085871590509941,0.079979751942232,9.574288280027481
17.172772722675656,-0.7956568175160554,0.0844148585892866,9.568376070512429
17.176500657806827,-0.9712960745616066,0.07074120210746963,9.557557430153908
17.192729686636596,-1.0004632232655473,0.07082354290741243,9.579064643845168
17.1964463353236,-1.0287307382516586,0.08268343846325983,9.553387954165807
17.21263604512602,-1.2113491409483834,0.06791926740036375,9.577361916371911
17.21637911023518,-1.0324878276808902,0.09402912309833221,9.575345891037395
17.232538239050996,-0.7316302712295175,0.07697154902999576,9.558333234444925
17.236267335240868,-0.5932836025546047,0.08200518117683166,9.55721726964309
17.25245868455596,-0.536713482992289,0.08152619631912524,9.561889078110427
17.256175603873835,-0.607768252402326,0.09072318256419735,9.556667616517345
17.272329439245087,-0.7407397091159362,0.08885089614757266,9.560662226941428
17.276049560306493,-0.6635398392323388,0.09093261839853882,9.558863736214539
17.292205426873597,-0.5413576682720108,0.09311765432262499,9.56705617624767
17.29597337525568,-0.4040808892525104,0.08925761786808221,9.552582310547592
17.3121734083744,-0.3298218328838705,0.09431726629231799,9.567068980930292
17.315897176554543,-0.20620138466086443,0.09351795068221735,9.563657217202776
17.33205018634701,-0.1131282782556856,0.08740850701605321,9.554950232322485
17.335814261450395,0.0814065950958322,0.12065643225577134,9.557942496838521
17.351967148365617,0.20512526380335883,0.10760182502150631,9.56671905235711
17.355678793397978,0.26490149771643,0.11256893275930792,9.572332426754398
17.37186368378967,0.37685418869689863,0.11806146077073465,9.542926835772779
17.375618085070915,0.5374611625582353,0.11307955705398479,9.573746136895217
17.391725901882634,0.676714233527109,0.12288170067749646,9.537704448370516
17.39559047813392,0.8326200685393833,0.11012045836627013,9.586669322197734
17.411767031696716,0.8801471744236555,0.10625478044854894,9.553669559717743
17.415590556420625,0.9381371228957839,0.13136055794295323,9.56212960889454
17.43176725560977,1.0229761810540696,0.12553994830760412,9.553026516958639
17.435516432910806,1.0733278844139753,0.13146168813433648,9.568825824435159
17.45166407380124,1.0836952782172782,0.13423292241818421,9.571713918838208
17.45542565736661,1.1852818011636295,0.13158405658899266,9.569387211077723
17.47158629689823,1.2016871601034478,0.13551803404578894,9.563047209271495
17.47534458868325,1.3099258396817397,0.13315421999072644,9.56812783570507
17.491474176469797,1.2912564747217494,0.12688538970796126,9.557786645379142
17.4952542193659,0.9463856769958263,0.12062818019066947,9.543381797719842
17.511363083175386,0.6389147750965414,0.1257431788532353,9.549801816240128
17.515160773513518,0.6456575514939602,0.14187245559990233,9.55649599310238
17.53128342963225,0.6538226219417621,0.11121439220029626,9.562369154330883
17.53508622406126,0.6228415580263349,0.11762288477843562,9.529079273360484
17.551204510348644,0.5524256725453036,0.12940320218341245,9.555183696953458
17.554938326891378,0.43539757997217976,0.1001904007595712,9.557051394740606
17.571063969456414,0.28059803832631347,0.10983054888453414,9.530026139403724
17.57484484585051,0.20284401177620978,0.10823037770126141,9.539253143794427
17.591016151094035,0.08676169347223622,0.117926291693736,9.539931709305574
17.594789688773506,-0.040523803663760495,0.11889441308210656,9.551987842469046
17.61088009457389,-0.12577383157599928,0.09558378127910601,9.544352553344885
17.614647246373643,-0.3426619135802804,0.09288419762432089,9.53338793911284
17.63076875344333,-0.48029179814951206,0.09645707753109013,9.519994788172497
17.634553213370033,-0.5210676281522486,0.09967383270524946,9.530514281374819
17.650639920443346,-0.6176675797112307,0.10354210583337883,9.517145619971005
17.654529095995727,-0.6971484801068792,0.09307723568365692,9.523134678344908
17.67067253350611,-0.7679052032170137,0.09339392740762432,9.526063425825114
17.674466048782744,-0.929768659964948,0.08489358034759543,9.500599878714803
17.69054350967303,-1.0084558364466534,0.0945786225877926,9.50293396927383
17.69433841511028,-1.060042852808728,0.078233107257365,9.513388603518743
17.71047280568231,-1.2126137051054429,0.08334262710843807,9.514415452745654
17.71428876144351,-1.066015035924587,0.08181552726587121,9.503071627687211
17.730354697516415,-0.7791456992108793,0.08738395860405411,9.528029669285726
17.734139591106004,-0.5713935086402301,0.08924354272637192,9.508053636847176
17.750320245840406,-0.5882378612513587,0.08613570541023396,9.514403109601213
17.754137765427473,-0.6217080118090472,0.09429362230752583,9.511757203843295
17.770225664965675,-0.6562714127396952,0.09656334689172032,9.505718428410413
17.774041598057853,-0.6376776627064312,0.0872920745746248,9.519793199588753
17.79013571330925,-0.5957729525254081,0.10349508673263672,9.498618954712066
17.793934994227612,-0.440820510684203,0.10252405474215563,9.507954643416362
17.809998288721296,-0.3268552040675345,0.09890818939412307,9.527289961945172
17.813855231705134,-0.22698523598223727,0.101872395676799,9.524451163735947
17.829965870236734,-0.10487126075576153,0.09463022476622414,9.529651346173896
17.833780778983364,0.06709711051516647,0.13113178964327263,9.529877387809456
17.849835227578154,0.1590983487771088,0.11772115475152709,9.50927255234506
17.85371381866084,0.2606073991362545,0.10639935878253089,9.552398247204437
17.869843975230186,0.3425447008897897,0.11521294310347792,9.508787081876052
17.87364263731384,0.5320881316344438,0.11720025821622185,9.545907562809324
17.88971088999455,0.6664579167357352,0.14460813796592456,9.51605767241219
17.89359856617306,0.8278385678206401,0.11726151334888259,9.54040692907946
17.90971877685831,0.8925697455674231,0.12511574691012747,9.525625665389942
17.91351777586298,0.9123608312410522,0.13508700124682205,9.52960391992905
17.92957303246103,0.9737109960737925,0.13185888076818497,9.524525502029316
17.93341469889925,1.0549380561367057,0.1402812990211279,9.544758250625659
17.94955956081111,1.073264331316347,0.14165384474033577,9.521910435038187
17.953349820818183,1.1906326610087503,0.1416693837917106,9.532727647410065
17.969431975282784,1.1659277563433175,0.12813724142299363,9.526353237844106
17.973284268955215,1.2471310179772113,0.1433928190687606,9.531971334806025
17.989411109399754,1.3444150980866196,0.14159436939635686,9.54146091610775
17.99320040614152,1.0574389024343893,0.115635950023351,9.5247927099184
18.009266442656255,0.7264144994002958,0.12464301827044758,9.520443389107935
18.01303623152094,0.6427786672784197,0.13714769969748034,9.519055730204053
18.02917946706594,0.5916480498822214,0.1148532304441167,9.530748043204426
18.032983643723714,0.5887478977397234,0.1202273482814612,9.518290367294801
18.04907817346881,0.6062558052882554,0.13155656546197317,9.530360346231774
18.052881906960597,0.4772242195728477,0.11280251214632755,9.527011043542307
18.06899244514894,0.2922274981863992,0.12552237726096369,9.511055295692673
18.072803396174947,0.20535514179259565,0.1289690727124323,9.536018280006523
18.088941381607555,0.12464645615469945,0.1101064901047796,9.501801152723644
18.092894179552648,-0.01851711373810377,0.1184261052437271,9.50483298764909
18.109015357934883,-0.11842416364215999,0.10195031402474478,9.50881857569843
18.112814117366888,-0.2901519600604247,0.09877159732570209,9.507097537180178
18.12888791830212,-0.43186564545542394,0.10641361572245597,9.51465620767914
18.132691688187286,-0.5007166695529213,0.09880623115846196,9.51607391275317
18.14885300942477,-0.5876469363543154,0.09235572997380072,9.504314576492712
18.1526750792545,-0.697256193239948,0.08785481821954053,9.512285288646806
18.16876591215553,-0.7691951108241013,0.09441191063035471,9.507772948266481
18.172655975999646,-0.9333019953816254,0.0858900478880349,9.500116129731607
18.188846390138316,-1.0037454650469755,0.09678554209108456,9.504669067448118
18.192623940642207,-0.9800808927292907,0.09535347252642824,9.48275610310997
18.208684200365326,-1.194538266750737,0.0789130684750465,9.512486650045036
18.21247334818851,-1.130899844089247,0.10173992643716619,9.49443166103713
18.22859046179835,-0.8055273081951874,0.08530695888770701,9.495270954636096
18.232335131824193,-0.5895707184236757,0.08454802042326429,9.502906237652118
18.248490564532798,-0.5857020285464369,0.08960098295938347,9.497984425829234
18.252296881666876,-0.6518541187949124,0.09536419500809401,9.506659881736844
18.268379222010395,-0.6010918870800811,0.10711643284983681,9.501976136343636
18.27227047508727,-0.6524843987191968,0.09679000966175938,9.49795611236309
18.288421082411332,-0.6837994486367297,0.09621527175652622,9.507304552964424
18.2922645069534,-0.4579341173293485,0.11491686755583318,9.49653022423826
18.308405155501912,-0.34626785065837407,0.09989039465006944,9.519659997568617
18.312170516022082,-0.19878492171371934,0.10231301512811715,9.512157734763592
18.32830977229368,-0.12046998678238624,0.09773495064826526,9.518079782061406
18.33208558343713,0.030892635543997703,0.1282784501434788,9.52555002078547
18.348191002282686,0.15622492133714422,0.11617993412315046,9.500036178453707
18.35195603865504,0.23844023917095605,0.11300758133190529,9.524044918240618
18.3681159651538,0.33712758937979714,0.1203803308118076,9.482709226489932
18.371912536333234,0.4801931074973431,0.10948774469859336,9.530320945095564
18.388025556781052,0.6066473756540067,0.12348518344607816,9.520271649262078
18.39180734816742,0.8174110057859609,0.13568152340325926,9.536922924310323
18.40792602218274,0.8620104089889552,0.13373769206802555,9.524846458009979
18.411717660848925,0.9332803402562584,0.139126854400949,9.519559393298888
18.427848050849178,0.9646868195083779,0.1333769444196408,9.528810804365788
18.431717967988735,1.0333416048263016,0.14228542787651782,9.53574008113196
18.447887153829072,1.0653644992127913,0.14723381021033063,9.529220051768377
18.451728950091947,1.1548745043756137,0.12971108729288136,9.52783896140583
18.467932021261905,1.1989795641788343,0.13226755155068876,9.523135814847706
18.471671923946534,1.25477382558966,0.12160405071602015,9.533697248972597
18.487782617756668,1.3124299204439298,0.1406446153757989,9.525990963675845
18.491585374074234,1.1128849645804997,0.1283147725466292,9.53139298659966
18.50779081203926,0.7587583208304167,0.12209312128439723,9.521311386031885
18.511549909438422,0.622506796143263,0.13170281968468595,9.535786269164124
18.527657927224045,0.6212741469595086,0.12470068359086482,9.535298806904168
18.53145226606814,0.6176778351119798,0.11327625883932402,9.51268338181379
18.54764549698889,0.5852488951626893,0.12396775831758387,9.510909139397654
18.551378294974867,0.4721785927951909,0.11181995621403604,9.544312978062031
18.567511300403897,0.338391278669883,0.11939657329345713,9.509127276840358
18.57130258581107,0.22250133386426732,0.1290149097478947,9.531592283478517
18.587514381028768,0.17307187716704847,0.10416958304862645,9.496813525761453
18.591250461716484,0.025079074879469067,0.11735712131818027,9.51982211326574
18.607375356271625,-0.08189761832967908,0.11658334424583264,9.52450646134061
18.611083214887778,-0.25091958606854303,0.10791695589025921,9.509587331705509
18.627268367345163,-0.4573181302428961,0.11289187507495411,9.498876103663207
18.630995874190933,-0.5160838280693932,0.09370509310175729,9.502308393800003
18.64716319917398,-0.5749186506686769,0.11055245281679467,9.505572280386215
18.650904508863174,-0.6702757102388408,0.10139618644357856,9.49617449099899
18.667046168989874,-0.7246100540476325,0.09107073299910402,9.496517254760006
18.670742554950817,-0.8431711154683005,0.09059946162459544,9.50891800714514
18.686913848718696,-0.9839828766853993,0.09064518640726645,9.496815223873325
18.690648823794877,-0.9927562974706192,0.09752065883973528,9.499728384565646
18.706847003324633,-1.1522981748534864,0.08609306688181245,9.499312055018374
18.710648115463915,-1.1640642606359093,0.07651418098353553,9.48815592332847
18.72687576178597,-0.9112068581297231,0.09476301719532561,9.50099390041045
18.730662967500944,-0.6261248168605978,0.09598739228289975,9.508165660039767
18.746916110933544,-0.5499548517604064,0.09141513857572857,9.489688025920362
18.750611878439972,-0.6292424476575099,0.09837071927524162,9.508451964749856
18.766796922878353,-0.6829318547666906,0.113019677063968,9.497122783297959
18.770505502971485,-0.6515751732007199,0.0914428088222445,9.509746697363985
18.78670891056076,-0.57661137404385,0.09712486453067927,9.504015684342738
18.79037944416053,-0.49427029677500217,0.09918453254901492,9.507371859870887
18.806608103130777,-0.394061561992386,0.09278932054989608,9.507024940745781
18.810295949766694,-0.2798470163317996,0.1183358141350161,9.5185522412723
18.826489720296518,-0.1606586724460689,0.11304885093696272,9.523779140173572
18.830260486205887,-0.015588316484951622,0.10534452181112491,9.533066788072377
18.84650120100782,0.12046467578265488,0.13287378464680327,9.506863167471295
18.850271717170987,0.19705232544304419,0.10552888510170376,9.537039917493066
18.866548574359477,0.2928855719701051,0.1359273338040852,9.521292304080369
18.87020325703635,0.46803221888643387,0.11106428117337644,9.524991262809705
18.886406799789324,0.6241052297818005,0.1218106476813497,9.518173790113787
18.890145242270375,0.7633629244412063,0.14105390129754072,9.533377695909378
18.906458738075624,0.8317587114282684,0.12006312962768934,9.530532566003336
18.91009611250632,0.8552968833399731,0.14056870271431665,9.535386878027376
18.926316218643045,0.9472879696037666,0.13864809961101401,9.547059764785718
18.92999777220687,1.000359289402629,0.12498059649166754,9.527969013385356
18.946272972123797,1.0613328044707977,0.13549153834907132,9.524354244910185
18.949907337098693,1.1451014777596804,0.12997581927746332,9.516281430946634
18.966128321811258,1.1856632661590507,0.13646616713152884,9.516097536457412
18.969728306057434,1.168333390370788,0.13876405426821653,9.521137667765565
18.98602403120386,1.2884768658191679,0.1528459509216479,9.543575740870397
18.989651963490367,1.1715966471244519,0.12702460993637105,9.524426283643567
19.00587462493181,0.8465905139972609,0.1275971985800846,9.510619745689729
19.009474788466107,0.667023662229096,0.12360834704339174,9.511694889053757
19.025781786874717,0.6624560702647292,0.12891071774024276,9.535798574942472
19.0293961701469,0.6223042296899102,0.12221913691075545,9.522895274353422
19.045687661604003,0.5794815453259902,0.1174530643190835,9.516068481499783
19.0492951043409,0.4696216960165528,0.12920437575834345,9.537153118325238
19.06557878927086,0.37647070413412537,0.10815921469557668,9.528907744729766
19.069281838202865,0.25812707506766885,0.13068003889557697,9.523803697659162
19.085618620334177,0.18722018018057182,0.11658786165363781,9.511816485173265
19.08930025292392,0.023765833160852973,0.11639784868526656,9.511265424643613
19.105707701629118,-0.057200625697442324,0.11055383013544953,9.524953849110945
19.10926396485286,-0.16558102785542475,0.10089252908510966,9.531810774970781
19.125622457594112,-0.4032764577543264,0.09093353316606533,9.51960494959561
19.129221707532643,-0.5163145034863164,0.09124430480617707,9.503326232955416
19.14551940850075,-0.5631971118315023,0.08650570474109272,9.528480306962697
19.14918411080109,-0.6277843179343693,0.09215129834297216,9.529125258416084
19.165498763028538,-0.6969191514495056,0.08940543261043414,9.543734731286163
19.169162700641937,-0.8293911860601019,0.09383075102678132,9.54505487094704
19.185576836718013,-0.9291619595717485,0.0867569188799532,9.551814017760284
19.189127491062948,-0.952254123385657,0.08563374868011896,9.546626446177692
19.205491498302422,-1.0887648894872977,0.07120905644121883,9.54895068255651
19.209027996635108,-1.1798169806038468,0.07366651917297334,9.567446070901179
19.225373128209917,-0.9588205720697441,0.0897105716750387,9.554098957167191
19.229024382269376,-0.6806840400982812,0.07854575495033361,9.569735501050014
19.245414363600137,-0.5765398375342475,0.08437758954878213,9.57044562770234
19.249014018133806,-0.6329652006994845,0.09674487105325484,9.585574044070798
19.265460059397398,-0.6656282511343099,0.08568930788427087,9.570175178873313
19.269093527955963,-0.613048610845123,0.08551818537092376,9.578264864026325
19.28547467002853,-0.5074655524740274,0.08607181741848821,9.581892297325709
19.288975253209912,-0.5153408581225745,0.08154895990224977,9.582257838573193
19.305374931378154,-0.4593411866311323,0.0793368906926885,9.568110415825537
19.308861642338336,-0.3191562031376539,0.09605585618101993,9.592197187700283
19.325264393775647,-0.21340886217394708,0.10262374969216502,9.582691856118522
19.328794093938413,-0.057385142709752326,0.0934007909079906,9.590868984174142
19.345169339302455,0.1087627495534823,0.11928439010449092,9.579613562015103
19.348779654594363,0.1946788958206011,0.10027926461118693,9.589308540284941
19.36522104370972,0.2953547854343906,0.10413987114558917,9.610189927340143
19.368721038779025,0.4099463419199062,0.09968833379635623,9.578240609739039
19.385195488002775,0.5377086252842903,0.10158624590800851,9.586642121850623
19.388626272403293,0.6979594030314078,0.11228222976908164,9.584108078364219
19.405060415212372,0.8764967012487735,0.11820780697849384,9.584240137466889
19.408590888475956,0.8956505917553025,0.12328438139743246,9.58304634937147
19.425069257705008,0.9630214192738613,0.12785097021512334,9.591483302750042
19.428524994070088,0.9791830055634316,0.11857072787719013,9.593385342459653
19.44493043733773,1.0229893952446483,0.11944005027063594,9.585736687333016
19.44835257634096,1.0761046506913694,0.11912252906941533,9.585129724568597
19.464872433533692,1.1656568544649968,0.13368589477715492,9.575668379323726
19.468279128075785,1.1860328460263412,0.13082621883654524,9.59886328952695
19.48477957956065,1.2992326931160378,0.13450489180605993,9.593916823777333
19.488190701594434,1.24560511679275,0.1231413126294272,9.57778244175987
19.50469811454412,0.9244677661958106,0.11978173749122308,9.575797414166646
19.5080807373337,0.6668106027018083,0.11238976137783376,9.564730281614889
19.524605543027945,0.6230750606950002,0.11684309195679159,9.576585041217824
19.527979553279412,0.6219798640759179,0.10122502431397983,9.576464241631204
19.544531653934182,0.6320340985295989,0.11735316139282874,9.566498595601816
19.547930721730197,0.563401261696849,0.12561949527890176,9.585860883477668
19.564472502109915,0.4305587409024938,0.08778452725238166,9.563416377296518
19.567853913532122,0.2529908363147514,0.10808917632313322,9.563844711276856
19.584370235704625,0.19437764815851163,0.12144119588131518,9.56387273961634
19.58784593961873,0.08642767246673883,0.10896539303314676,9.56002839486313
19.60439505734078,-0.022640272572572385,0.11140410367939815,9.553878724520558
19.60770471435762,-0.11797552114251007,0.10314807504522158,9.567223220977251
19.624302608246285,-0.34548629975076717,0.08914705445087426,9.557060072103022
19.627684710540905,-0.45524032525192837,0.09186334988028996,9.539385982879269
19.6442610981533,-0.5280104347968188,0.09079583115818358,9.550124087459361
19.64756487940867,-0.6029004857374841,0.09095565651556539,9.539603196847898
19.664144075804185,-0.7181891845494084,0.09236432645655235,9.53629822841122
19.667533203660977,-0.7946576548922666,0.08675720466906242,9.538461121364955
19.68412148450917,-0.9120219586257908,0.08014511743187354,9.531144690643515
19.687506603903156,-0.9421565915258424,0.08977675663148188,9.534755991949314
19.70416666767265,-1.033042941210779,0.08767224932433698,9.53069447047632
19.707435394730837,-1.2078825612229986,0.07601952747362777,9.520403160283951
19.724079240492763,-1.0646173386416369,0.0767045699799096,9.539310798023083
19.72733902276214,-0.7689831014197099,0.1020397572835372,9.539304278183415
19.744022416240735,-0.5632942751335708,0.09090750324745546,9.536107114336664
19.747266964746622,-0.6015962979499347,0.08285250258922297,9.537503172478413
19.763920624440207,-0.6766485354450363,0.08805496715613968,9.532807304500071
19.767178498664325,-0.6548149352560232,0.0893591732136594,9.537729221420562
19.783819671682643,-0.5720583559310641,0.10688493264363258,9.552370114962123
19.787043379869733,-0.5332748025720186,0.09284622424809993,9.525527959290462
19.803743646235738,-0.41354369512630657,0.09382368991509442,9.530959725333974
19.806970516488796,-0.29913427240709006,0.10184584145635427,9.559503519717358
19.823628160941443,-0.2147135502671608,0.09900398282837675,9.539520284234678
19.826961801650352,-0.1331778531813086,0.09896084839230557,9.538877444221065
19.843671642518576,0.06864556207425507,0.12844248522592677,9.55270188732771
19.846874088721155,0.18046694438243294,0.10957362135408612,9.538227332967663
19.863579832698434,0.24838255449511082,0.10802233626018329,9.560567231195954
19.866850596070485,0.36865629132391536,0.12210278364287129,9.528845726136105
19.88363470283818,0.5256194833979908,0.10368273965520977,9.55575434245127
19.88686302570559,0.6552028466352531,0.1394725334875718,9.543315476778462
19.903659282673498,0.8319551044005559,0.13369267566817336,9.549557441567782
19.90681046980407,0.8421244287912724,0.12024568432107184,9.551404386211228
19.92351231189549,0.9125545020677249,0.13908567401456043,9.550734224796594
19.92661474434475,0.9681215191116429,0.12625817554577692,9.54910227953607
19.943442835216814,1.0146562798235412,0.133526029095898,9.554108104455487
19.94655662466078,1.0727095154391157,0.14348745152832326,9.552301744081145
19.96335466592957,1.1648681571606172,0.1387236515588465,9.54997473641154
19.966451571228834,1.178124895827372,0.13397550597832356,9.553186838728916
19.983256399402478,1.2376528185939866,0.13981202108519833,9.554679841502919
19.98636670678675,1.2549998768946902,0.13442337705657403,9.55305724382928
20.00319760857268,0.9891649319587738,0.12242405469834004,9.54118126406471
20.00625955357108,0.7130356399759634,0.10866946448603444,9.525902235927076
20.023073485326183,0.6271642243367482,0.1272486151647375,9.5459328141212
20.02612904151276,0.635543142979051,0.119491056317722,9.541904444309193
20.043019680217327,0.6325989190866386,0.11123282099796503,9.523740169896275
20.04616839682489,0.5994275881536328,0.13844017156141986,9.553652265235128
20.063078699465123,0.4659467805709297,0.11659804221451377,9.541657072315052
20.066091425246782,0.2968148334622153,0.0993155564694079,9.529408277983508
20.08299405871862,0.18818564902333454,0.12161704108959748,9.539278390508391
20.08601724843934,0.058341024440692016,0.09929251101522317,9.51845854019152
20.102881914041152,-0.02467029987456202,0.11389485621480876,9.526908687191955
20.105891790512537,-0.07095576747126965,0.10821351021702687,9.524360932264235
20.122801825225707,-0.25952841062638154,0.08441365336198337,9.513510881311392
20.12577529471474,-0.4276527883030849,0.08778217013581567,9.51901716093523
20.142698551788246,-0.5097422760597431,0.09127647833313364,9.524461140760172
20.14574322827208,-0.5808776895065628,0.11051038850113906,9.504782191321448
20.162711391069067,-0.7164342745614644,0.08687721626435134,9.51770821510272
20.165714879893518,-0.7815195092481024,0.09000168347698126,9.515960459998283
20.18272143977621,-0.8885932079400244,0.08049954789068267,9.52296595270572
20.185629727742988,-0.9566448780249047,0.08921931876739644,9.510980036306131
20.20263720894277,-1.0577402112304886,0.08005022529231294,9.509909938724675
20.20554213544208,-1.2131014659702783,0.0836822379114605,9.521394971649048
20.222539034450776,-1.125285813228259,0.09248045656526921,9.527607095717585
20.225530874857583,-0.8095375553517049,0.1060426854412123,9.521143961444638
20.242540104488505,-0.5828665965211248,0.09206927202404466,9.514020517214757
20.24538644340358,-0.5533257647115862,0.0794792860635453,9.514211067428777
20.26245218917707,-0.6575328625480864,0.0902436815790197,9.505456792548738
20.26528168830806,-0.6668018435550395,0.09507011618776139,9.524245624231604
20.2823850590731,-0.606626692667454,0.09942902519264829,9.510468205182313
20.285216713673908,-0.5152554905547589,0.09118807465735577,9.505254792072162
20.3022872720818,-0.41983856537553155,0.10100825312065496,9.528011960953666
20.305149954368986,-0.20524173255176204,0.10766357593429426,9.52969929287305
20.322231823947515,-0.16265639361476708,0.09445011873106313,9.51194120437234
20.32505928398845,-0.31889889083175993,0.09204733534116577,9.528805858478002
20.34223449813445,-0.13118445594788256,0.1338581142131554,9.537512705036246
20.345030073410776,0.09489046246223001,0.11909923385558115,9.522417464604883
20.36212351119804,0.22602667919936584,0.10307859370336621,9.53592918413157
20.364887616013526,0.38847958168764835,0.12184204843165225,9.524544570567056
20.382047429451198,0.5876522248899824,0.11370909122473621,9.546317212612177
20.384887175531148,0.6586577113498759,0.1305037702632647,9.534058312251526
20.402049192278746,0.7750589579671703,0.14041491172979362,9.54564053667213
20.404733108396943,0.8211560268776469,0.11394170631926721,9.546868095475478
20.421990000304927,0.8797280308093632,0.14197083423399895,9.534615067129309
20.424705481960885,0.9811854511177698,0.13353104104428865,9.524510137941673
20.441897139569534,1.045051414572946,0.13661658255088124,9.53882314993116
20.444678209933247,1.084978481200866,0.1390737759533879,9.549613156729077
20.461959910101204,1.099828588651158,0.13368539641957453,9.534528073064289
20.464603388668348,1.1293310348047767,0.1333366169623842,9.537599874013537
20.48187095779983,1.1997946633133498,0.14267950040238536,9.557324823576355
20.484505996555363,1.291371172233824,0.13405229049224882,9.529856910272944
20.50180562130173,1.1143200178768096,0.12803147152596395,9.525376094948921
20.504400437393123,0.7882457042861658,0.12070553204895124,9.530504815205164
20.521699672289515,0.6151765562213493,0.12410138619778655,9.534367504845706
20.524304006563096,0.6152702572077632,0.12857914351380242,9.548989239923719
20.541573275460536,0.6319973644527258,0.1086039585492004,9.531211740342847
20.544116157337115,0.6328228698768158,0.13197650028080135,9.535906410274094
20.561422241474098,0.5199712316439886,0.11496053964354302,9.527317709964876
20.563972008253746,0.3589489408797004,0.09634700975119355,9.524956400157862
20.581369060329155,0.22016874840109224,0.1281317944825145,9.546496962550767
20.583882188784262,0.14226946041384184,0.11235773167948535,9.510249175335035
20.60127167306715,0.012440899658936466,0.10587143651562378,9.514938353577442
20.60378093248779,-0.049149810230850126,0.11903630426681633,9.525369579372745
20.62122112678181,-0.23427849942978016,0.10231485515378395,9.521496228364173
20.623705614444756,-0.4304894096263895,0.10328448756527307,9.510770208866617
20.64114933537672,-0.5294279030701886,0.0913707846798999,9.518623136029822
20.64359637065087,-0.5481869587570096,0.10049817341733462,9.495593790981069
20.6610374867802,-0.6465133595127195,0.09900097132111896,9.522423849123479
20.663460599263786,-0.7194765587150082,0.09296633362856069,9.514127550341662
20.680947623947194,-0.8583274781483106,0.09599149791885313,9.495712249973279
20.68335136246003,-0.984506250463056,0.09376791021133407,9.50985615762396
20.700917185549855,-0.971512189105947,0.09742485964242784,9.504359591183768
20.70331746027142,-1.1403464509424712,0.08149398152174028,9.495994304104045
20.72088975378805,-1.1737818752642077,0.08692073725111263,9.516957370406331
20.723363320680118,-0.8858870380469942,0.1156144175791964,9.51899529069588
20.740933753143533,-0.6270992105909314,0.08573742362676882,9.50936190017776
20.743275149635334,-0.5735553388044957,0.0979266672755204,9.510734472363545
20.76080064828067,-0.6621806578256686,0.08727966565153553,9.493175422680126
20.76312653233874,-0.7060433282300584,0.09482578949224664,9.501421141400236
20.78074861243291,-0.6638652687600973,0.10984006368279718,9.5202812945694
20.783027245779987,-0.5649594653954638,0.09485334775702702,9.509314471802517
20.80066544604681,-0.4331488403202086,0.10027570061467028,9.509422512930117
20.80292916952257,-0.33355505878596214,0.09337710691365614,9.515666898471345
20.82060684201918,-0.24458072430044958,0.09611819159140114,9.534684242031602
20.82284558495798,-0.1645291880635095,0.10634414327549466,9.515126183795067
20.840530540368672,-0.024557061641314184,0.11628177410517913,9.535873033961614
20.842755249613873,0.12037155828398807,0.11988373910909826,9.533881824453278
20.860449596186367,0.1886489379345344,0.10017651373305227,9.554160638505214
20.862597520768652,0.30529651139231134,0.12503416455518274,9.55456135587042
20.880347324571733,0.4877505213876606,0.10287754068177214,9.567186444419649
20.882492936855368,0.5946876029480972,0.11480025536654523,9.578505617591784
20.900239416304153,0.7397817652095103,0.13166530696009088,9.570341837854853
20.902357711417583,0.8418811807392729,0.11741066346959009,9.596085341532364
20.92014188204771,0.8774349427274186,0.12794154435945523,9.590356983146286
20.92225676526561,0.9670231609212963,0.13133012974093106,9.58562248480229
20.940027072732402,1.0163126391613062,0.11353943493233423,9.59526781329454
20.94222239163467,1.0540217953639326,0.1288211774929758,9.59150855175784
20.96007460431156,1.0811049976398341,0.12606273296928994,9.60521445902976
20.962146625586524,1.1437157281917647,0.12760254872458004,9.61413943083884
20.980034655181132,1.1889044787151128,0.12221439717859563,9.59375989189862
20.982035526702216,1.3132976885263083,0.12951426468744065,9.602519778503996
20.99990843737789,1.162688557255011,0.11638962650170769,9.594044432360976
21.001937949486955,0.8350453314832955,0.11937725141107715,9.58614088869127
21.019896719620593,0.6504546104951315,0.12023191187800389,9.594241792671049
21.02185695367835,0.6303106682461913,0.12544820895940012,9.614217794922489
21.03975932157995,0.6465510882488071,0.10863749943612405,9.593593825729563
21.04167610431,0.6598813727507863,0.10752847928677871,9.58460753826459
21.059715764977053,0.5417869807713741,0.12485866830372151,9.60525526131737
21.061587073157234,0.40443552161972024,0.09239464254012696,9.592022381871658
21.07958923336879,0.2237248701674619,0.11305221979294965,9.595263436877158
21.081508811690497,0.13149529755115266,0.10848360510839576,9.582784437976779
21.09953969775614,0.0630786563379151,0.09875839065902542,9.580034562677163
21.101384233102674,-0.0026320441752268066,0.11001290642756034,9.589416825175938
21.119425750823194,-0.18576147905723836,0.09361122458567399,9.582371393238216
21.121343144429343,-0.382866129472178,0.09690260221160722,9.582339584634934
21.139484128288668,-0.4884050560734383,0.08007066157838665,9.571368676443132
21.141251901393566,-0.5543615067301846,0.08301656333708274,9.550936841651177
21.159399885431725,-0.6281942541056686,0.09338811126251044,9.57170757061554
21.161225375828643,-0.6977951719851918,0.08817846420820545,9.559522418509163
21.179412249323995,-0.8110958177675168,0.0832113570123482,9.556258534490937
21.181126178729663,-0.9596212088104172,0.07405443069621379,9.566429005396095
21.19928636010647,-0.9717297831592749,0.06989583610852504,9.564505287304343
21.200957838226522,-1.1446243089393895,0.07051200046488272,9.558093465547667
21.21923334426775,-1.2144091167246738,0.07994018714029122,9.559280698614922
21.2208653178762,-0.9346066160234869,0.0887947677291448,9.542605921240913
21.239083238879452,-0.6683379954440655,0.08076396008867451,9.549136371810185
21.24067403242691,-0.5582444997852155,0.0839603398892406,9.557360390610464
21.258984349711767,-0.6372462210856477,0.08633444744721956,9.540881774583049
21.260498095646383,-0.6877838064353201,0.0840945839286261,9.557318177513986
21.27884551753431,-0.6846694431945723,0.10410913807786276,9.551009216063369
21.28044486114896,-0.6151977209744189,0.09143099259810197,9.55794670473428
21.298810361948217,-0.509057380328606,0.08985047082694674,9.55118610331002
21.300375307090036,-0.3599809051398344,0.08524259202180927,9.553660440646443
21.318782969998335,-0.2091091312250947,0.09042782445776407,9.558724395034188
21.320278367440537,-0.13364277348210038,0.09841006046811265,9.549292560546887
21.338795390908114,-0.09644825070539902,0.10682673896742342,9.56138538647077
21.340237353828595,0.03784003073832537,0.12335463715961745,9.561553707897541
21.35876791591492,0.12653815944781113,0.09711242326404587,9.554661445877336
21.360285240042757,0.2893628812585298,0.1074762136393729,9.564745792439876
21.37882968026945,0.4831711758252922,0.12379668575399651,9.561210774732837
21.380173024151222,0.6186294760324871,0.10011072695913201,9.559346424033249
21.39874936297245,0.7190998823724988,0.14034096680863098,9.543573447180323
21.40008214869533,0.798448372012203,0.12143875272961199,9.579424738012902
21.41865121337823,0.8258473187509544,0.11907731731854856,9.564871626990119
21.419979471194278,0.9732546262897923,0.1275612806151474,9.552488179269972
21.438624102460697,1.0186006550886528,0.11701858573313548,9.56239323678992
21.43999981788431,1.0579061857176886,0.12398737777766064,9.584829018289035
21.45874696963025,1.0806014116810982,0.1372585404162889,9.57524572550065
21.45990836755485,1.1211656148058144,0.12003725203865272,9.57515769127292
21.478701335106816,1.145639358881664,0.1156037151630613,9.576363765447859
21.479864928839014,1.2712200324775746,0.12008970294980066,9.592447513305975
21.498580721086707,1.2283469201673876,0.12186129040532659,9.605791725549837
21.499697756369102,0.9001937037385104,0.1113566382447084,9.592217523081867
21.51847261788516,0.676539520254905,0.11217603028583548,9.609466120614412
21.519562992933825,0.6507202746573206,0.13015373146811768,9.61481142271822
21.53841876326425,0.6456503851721376,0.10296348651560912,9.604626679624694
21.539427218053383,0.6538057962116925,0.11678354478944512,9.620276871351265
21.5583450168265,0.5384870219604522,0.11833265673404932,9.606584625001965
21.559345464697817,0.38760785328855896,0.09458201665428784,9.596620109679286
21.578250487002773,0.27844398686786515,0.10132508539050679,9.601475884063234
21.579214468804214,0.19535704167487677,0.10269388614168445,9.60859445099001
21.598175624382378,0.0810806679258383,0.09617949866511863,9.590959205706762
21.599106523016076,-0.0016160214858121928,0.11208275614643047,9.620234114988635
21.618163331377136,-0.12357064775307608,0.09159885758170008,9.600048637233572
21.61903112902809,-0.33662509421354303,0.08172744602705144,9.598688487105148
21.638061637006512,-0.46262430637715335,0.08893940535013618,9.589416943779336
21.638874556511272,-0.5459784174050365,0.08606425733654172,9.586200217403311
21.657970669137992,-0.6442154522650305,0.094021025198955,9.59895849153223
21.658744562721964,-0.722827481373896,0.07117097875399969,9.583794138534245
21.67786041340709,-0.7641573920371967,0.08321485480764136,9.588950071443868
21.678565880993126,-0.9131482682954011,0.07486965828941383,9.579167050402132
21.697760643567257,-0.9885603902330108,0.07194904923258681,9.59252825486649
21.698555202896785,-1.0692160150392689,0.06623581339856387,9.586565382359506
21.71783988073981,-1.212721065505285,0.08181443652727129,9.585063977649886
21.71850715346051,-1.020000523147358,0.08334883297445186,9.594421578151007
21.73786140185129,-0.7165591376545075,0.07707284099256141,9.579131103651616
21.73843138137169,-0.5536082602305454,0.07228119381255377,9.572177981142453
21.757772203493673,-0.5764122204179195,0.08883025302815116,9.580331844655111
21.758409009874004,-0.6810138863295876,0.09420073220073213,9.577520896370775
21.77784475027775,-0.7106521212308777,0.09168729248465662,9.568478471623818
21.77833151827171,-0.6298311278983594,0.08472094800569507,9.577795399044849
21.797822430039712,-0.5108659504628945,0.09491148117090138,9.567501583976979
21.798236930686652,-0.379977693466129,0.08534153699913337,9.564367532050928
21.817686967843358,-0.26041373920846544,0.09474521475922451,9.583278748962798
21.818099319833777,-0.17892702309152128,0.10243723233942886,9.574070310978174
21.837598286972487,-0.09910102449258158,0.0929839298937281,9.567790460609883
21.837932734446106,0.052125333274986294,0.11313314045909036,9.58276518526607
21.85752670057342,0.133403532518293,0.11058026235667463,9.569446799848187
21.857771740952717,0.2440733316829698,0.1002796635899924,9.584247873429602
21.87747287488241,0.4215058667476603,0.11950395676330103,9.556402832387697
21.87782053643681,0.587598903866766,0.09038083705726323,9.602517697969063
21.897543712254596,0.6947253417348567,0.1273161206353316,9.577296151609563
21.897715139760546,0.8303015616676678,0.11652335818699287,9.5890862261546
21.917485813514205,0.8433380691902521,0.11289263627232429,9.570843430136337
21.91760248008265,0.9474201405281423,0.14257500222374656,9.580315619031545
21.93741311230086,0.9978464206301085,0.11914108913772167,9.57132864462506
21.937525511087504,1.0386030817092229,0.13173829288385577,9.592653184233383
21.957380640394906,1.048823985498915,0.12696990707032532,9.584238393191145
21.957412038829787,1.1230555582894899,0.12264140260576793,9.57429992084803
21.977390749638307,1.1739399713287668,0.12429207626319298,9.56420412054535
21.97735619453416,1.280407774083699,0.12907607727862438,9.566566338633253
21.99733181934558,1.2479274498031514,0.13748533490092105,9.569971532436476
21.99728790353052,0.9378635033633017,0.1194746556058139,9.559913523048632
22.0173473128323,0.6631649006671376,0.12305296516453683,9.559908734375329
22.017156616203504,0.6409800617591102,0.13570342981195865,9.569438449525265
22.03732464042808,0.6690360288542484,0.11909294920944041,9.548539792109928
22.03709546731528,0.6548549690598188,0.12618131695667092,9.553828253683049
22.05723822532388,0.5922438257959309,0.13270498128398803,9.560711627983718
22.057002863087963,0.4212445407486906,0.09954625618903808,9.572912971308392
22.07718375699357,0.26841479627637965,0.11567374213942437,9.546893885901035
22.076859551649264,0.15876372653415433,0.11018131102029717,9.554938361042852
22.097167318651117,0.029456702450955025,0.10003686565825363,9.538640127949352
22.096771708040936,-0.11622770843275738,0.10774800926821436,9.557411389759801
22.11711951251442,-0.23959532414633958,0.09705913423432089,9.516973306915116
22.11662205409336,-0.4641130394550153,0.08827543418075798,9.548795469662311
22.137026357877524,-0.5818305678000008,0.09825287975274315,9.521372881923806
22.13649705137907,-0.6415194298793541,0.0859548306168945,9.54317427053325
22.156913993998998,-0.6757977891338369,0.0840407304831959,9.525774039388963
22.156313710003595,-0.7701973866226117,0.08472947691133514,9.52275868340096
22.176871352086298,-0.8292809546617409,0.08901112934331909,9.525035606525822
22.17622926342221,-0.8780604645626598,0.07583784226119301,9.528436894811858
22.19685916405377,-0.9245365352955157,0.08883437318501353,9.523958342205786
22.196210542025867,-1.1490490143764855,0.08417211036496827,9.526173666969195
22.216963190908928,-1.0381794903700257,0.08957479985996256,9.540780038133594
22.216146473654177,-0.7570897915184482,0.10164469595809264,9.534819036579723
22.236942385938047,-0.4952610389539599,0.09025503468738715,9.514140564003068
22.23602683444689,-0.41163363453035334,0.09345880716071911,9.51237270875981
22.256827113678792,-0.44498008185301163,0.1014330938304195,9.539024712594191
22.25593434979663,-0.5240246077313828,0.09024965863146416,9.524580481190581
22.276778902882217,-0.49560616665526736,0.10524814730572203,9.531542288081479
22.275801192395175,-0.4027165905051358,0.0867158527629051,9.525147449532648
22.296736765591568,-0.24106729175103397,0.09346703120468232,9.526834860365293
22.2957660532021,-0.1566131400570357,0.10091901069058408,9.523165234902201
22.316811207455743,-0.06292443513735271,0.11850993102076031,9.536073154592719
22.315628672105785,-0.015015989943753751,0.10250420458725042,9.530866134962956
22.336804186876105,0.07552847800306753,0.11388234485269712,9.538495864406919
22.335532841806327,0.18773450239362577,0.11948324040294815,9.528103771474576
22.35675515803874,0.2739001649936994,0.12270860521377971,9.517862257608002
22.355442320175076,0.38750539822748065,0.11373681825508837,9.545844285681923
22.37668645752089,0.5078620497054314,0.12343798433790078,9.542735067449158
22.375288128127764,0.6128006655047108,0.1300721672770034,9.531026815822129
22.396620034202737,0.6391605098455166,0.11269379931282572,9.5520381790245
22.395181238531233,0.6359174809578111,0.12486135409405694,9.529794534187047
22.416626564083042,0.6688693955829748,0.12183347244414482,9.538491684118753
22.41505518653545,0.70357147901455,0.12110919494645928,9.550418315147098
22.436571972969645,0.7453841787434987,0.13177115264587438,9.544945164985233
22.434932987101433,0.7861327316113258,0.12557346259413132,9.540228067820484
22.456506526656373,0.8092709455398751,0.126646727818164,9.526731727628752
22.45489562972606,0.7815887845649344,0.1250495880930568,9.545309083175068
22.476584106819082,0.7720488299205519,0.12010803079644183,9.519886723272535
22.474765935388145,0.8028115722392232,0.12136957700587694,9.531134441632217
22.496549113393883,0.7818627486486868,0.13064858404633836,9.521943979084384
22.494728048503774,0.5464327463478584,0.11800466358122601,9.532455365912163
22.516602992167826,0.3342179835985755,0.11327540655720636,9.52390736334057
22.514703465152177,0.22038488831649827,0.12172675578290733,9.538297846974391
22.536698213225254,0.24097402157550124,0.11589958326868857,9.519299498249408
22.534594600470005,0.2868066239858233,0.11344263679764227,9.531467743961423
22.55662934550565,0.21287263786952224,0.12705727395264288,9.522434808580176
22.55444980640712,0.09135324954951601,0.10009604393183043,9.522251860258963
22.576560508777,0.0340481866921651,0.1091524439677252,9.52740513615025
22.574286704564592,-0.031002682675616223,0.10314899416497836,9.516462160687231
22.59652231654983,-0.10958816509208724,0.10599446060191027,9.52453487241057
22.594245878892668,-0.14754166232109567,0.11756874895939086,9.519861350785238
22.616585825139463,-0.17181604557516808,0.11498715998972665,9.533549893286695
22.61411090622244,-0.23401432935021343,0.0965310347049461,9.503330725204448
22.636557120010416,-0.2953701925777866,0.09840811091695106,9.514227970896076
22.633980970378236,-0.37481762846146005,0.09597562525372473,9.513896045749885
22.656504429461194,-0.38754457008120946,0.10799863184029458,9.514689388243772
22.653906808556467,-0.39320332295017046,0.09584657959117128,9.507350338990586
22.676513789977733,-0.42867100081554177,0.10487363816895504,9.51194609147722
22.673820094222584,-0.564858428810523,0.08846236393083212,9.513007897284037
22.69657465848165,-0.4838032264361755,0.10576941785743751,9.521590137850502
22.693738568861253,-0.283410843837707,0.10734472780702256,9.52417458575585
22.716590765807574,-0.20739882609522667,0.09246979360198136,9.522686598921254
22.713691724794387,-0.21691654437327285,0.0967839747239489,9.517220187480664
22.736692957717786,-0.23465166867425252,0.10228384135054158,9.525521094978982
22.73362233654437,-0.16954832483802162,0.09781774977680391,9.52211802867571
22.756712471216016,-0.09445306919329965,0.102188540531759,9.524573922432726
22.75362730614148,-0.04001479602716457,0.11173009220099435,9.513692051077085
22.776809308867776,-0.049908017116571654,0.10623557575640552,9.507935646637812
22.773491128032305,-0.05982307359098328,0.1058090402878559,9.515517707286747
22.796772914669777,-0.012672187080340045,0.10497191570206692,9.528910220211234
22.793346556016242,0.06962848236286234,0.10714801875480112,9.523281598524731
22.8167161007757,0.11218335025677843,0.10501440207720783,9.519215614072332
22.81319157047883,0.13390626229937902,0.1039974253121732,9.519954637764359
22.836717051414336,0.16138530821819771,0.11413173073154638,9.52030956552903
22.833097828536406,0.1999977049352101,0.12231108200463649,9.52116338478522
22.856770981477116,0.26737845336412436,0.11611773302120151,9.51559623644653
22.85310272788916,0.2843066144314504,0.09211278179951736,9.531721304246062
22.87687973714639,0.28603201688778757,0.11689720408137569,9.524429183024195
22.872985681135567,0.2950565251832582,0.10681727485947165,9.5164119433547
22.89693489099556,0.31196875726423373,0.11820860220345182,9.519509706130766
22.893044154336092,0.33955170783614436,0.12279342949033709,9.524730511630853
22.91704288972952,0.3539693959312678,0.11313445064168687,9.518206928330224
22.912916530788277,0.38004094229339574,0.12484067917176987,9.521539936371738
22.937114192170608,0.31183602934433463,0.11374735442187431,9.514036359364743
22.93284435506092,0.26414660469437673,0.1132495072245511,9.524210609340749
22.957118125787286,0.2520590355305244,0.11956113682234339,9.510444831910311
22.952751517095084,0.22470473336899396,0.11685606014278842,9.515977206034325
22.97716891799034,0.20619093752170123,0.11151762761783122,9.520537582064367
22.97258786284978,0.15946544744437563,0.11352795719147106,9.528240758469435
22.997105419977135,0.09332881465946172,0.12141358495235169,9.517150156568974
22.992388904122087,0.042494490105951084,0.11160018485020055,9.515261752078025
23.0170865267851,0.015270488491672231,0.11034766043859341,9.515081076533786
23.012263750067135,-0.015366477709191424,0.1129042000588716,9.521738823391544
23.037067622793053,-0.03651890261934576,0.10626577018382012,9.505605777082735
23.032103455822366,-0.02222845054792001,0.11239002527988141,9.515192250047443
23.057133192034524,-0.04623798932146526,0.1064079773965999,9.507892223148108
23.052054253326457,-0.08658933234176965,0.09812125280492366,9.503923118688759
23.077222645406984,-0.09963202419977338,0.11035650941260812,9.520325080377612
23.07194681074703,-0.04888035612830769,0.10656287422663485,9.511733330968095
23.097288680020824,0.0018258803735282023,0.09999350529580664,9.521176346562623
23.09184415026555,0.07624959379084291,0.11492035431538936,9.518739981319381
23.117238914828096,0.09586037862440384,0.10657699942446493,9.521734037668601
23.11170811485956,0.0684188920127006,0.11819829846495422,9.515282280463655
23.137356387004143,0.06182361008993698,0.10866613485584461,9.528542802913176
23.131555992195636,0.0819458809156119,0.09844696152873866,9.5149903446237
23.15739257681213,0.06568292494374592,0.11160589604149365,9.52226553398688
23.151450726014726,0.08164509379994175,0.09810358508339061,9.52446909297635
23.177365815355937,0.0852841620387495,0.11932847038375713,9.514374015609699
23.171242171854832,0.06508040428527596,0.10460200241269826,9.517526952440605
23.19732511757666,0.04316691680116679,0.1080793984649165,9.526021998156901
23.191052971226117,0.06068570241182414,0.11815999555683429,9.509688355084819
23.21741876530463,0.07975368671452686,0.12243996050533874,9.526269699837611
23.211050565990977,0.08004878166912423,0.11772327810737163,9.520937679326854
23.23755147995246,0.07249637382134057,0.11559827229319485,9.527593010674149
23.23091375856477,0.06044327622687669,0.11069245497627339,9.528011201123356
23.257633360499373,0.0619466718633186,0.115789542868824,9.515096670626813
23.2508596305405,0.06407507892269051,0.1061547483813102,9.510357950548903
23.277717836576958,0.07725956028912036,0.12185932189780134,9.522198707919298
23.27067032756013,0.06932990300350175,0.10291802527434596,9.522115353514138
23.297726023583557,0.06936824783628476,0.11458542527928901,9.522711414347002
23.290605042809588,0.05628895017810874,0.11737334031942505,9.517379357041278
23.317856910726043,0.07151877489962188,0.11472103804287304,9.512411421544659
23.310399680857845,0.08230359765954841,0.1156887025390619,9.526657787488121
23.33796268163106,0.06345130899916025,0.11649459730528726,9.50246432775958
23.330400044301435,0.07366866193020313,0.11147455515336556,9.50896918290739
23.35804511733377,0.06730651474234949,0.11067948205530548,9.51597084219514
23.35018646146402,0.07131657554934843,0.11830513438990739,9.52765139186456
23.378115981492076,0.08101900325856956,0.11691066227877,9.520507374148336
23.37001454653247,0.0630290167607714,0.11775155102328534,9.52557220634871
23.398146437069858,0.07191082801413515,0.12013617904819572,9.522671005726613
23.389939436152392,0.07133668622749934,0.11102577809821532,9.525839125750371
23.418317678565188,0.056191967523579016,0.1069235638882988,9.50228800563796
23.40974880706254,0.07539998951187965,0.10722612791048129,9.51525009160613
23.43837893786261,0.06008533964444807,0.11565930701879786,9.514121153442055
23.429663514315518,0.07389098434150898,0.10535298844864709,9.524241683038207
