Time (s),Acceleration x (m/s^2),Acceleration y (m/s^2),Acceleration z (m/s^2)
17.214951635509504,0.05142274630662778,0.09434784258171995,9.588444534056064
17.375157855577495,0.049132321281138897,0.10957481500384547,9.575957909805194
17.244079736496655,0.06391849408379453,0.10424225442949031,9.569709299080747
17.38686015612648,0.05311503419990346,0.0977495081962889,9.580958533072419
17.27124666606023,0.05751733324469419,0.10108273317947754,9.576106064430162
17.400190496458844,0.0602073597748116,0.1046549649647888,9.584005336235554
17.29707866593526,0.05309373596893076,0.10176527728589024,9.583255741371248
17.414833459898905,0.05777345332648634,0.09394521758746695,9.576561468625696
17.32196366120999,0.05817157722306792,0.11108892579123666,9.589800637298966
17.4302147968648,0.050399033048168555,0.1108230410674393,9.580499236492006
17.34590536725382,0.059764566558791005,0.10225464839506355,9.582006967323755
17.44634129199059,0.09016510573964943,0.10628802298225529,9.577086416376483
17.369293537271375,0.22286628080396734,0.1085937474142456,9.57254549867974
17.462935348198425,0.40352998579016675,0.11327003459363727,9.583523620719625
17.392184662500437,0.4840997399129064,0.10803236153045351,9.575439663043374
17.4800726489491,0.4264232605513928,0.1095876101788974,9.568370157897759
17.414736894671773,0.273082347036716,0.10432684859204751,9.573224926406272
17.497453447154136,0.1561328926345872,0.10882932736369455,9.580231920609009
17.436922392212647,0.15749393587876429,0.10272403473690833,9.584204177004018
17.515175409032732,0.20871654391697436,0.10807523722789088,9.581311507269515
17.458828575294756,0.15428636606221768,0.10222918499922246,9.570543072292514
17.533081910780165,0.017741845139901836,0.09386114433885748,9.576358796816168
17.480528499537034,-0.1776566510140146,0.0819634253840783,9.564026980781515
17.551325854196335,-0.22589538258119496,0.09209033289775688,9.563427882053196
17.502125373135897,-0.27656323194971966,0.10076085814324437,9.5594804555214
17.569616908342628,-0.3539676277327118,0.08864746079395858,9.555909453063231
17.5234796266961,-0.37829720439369413,0.0891430454165503,9.558128522331392
17.588134380227203,-0.3032800519208863,0.1006529747260626,9.561441420717825
17.54471061590452,-0.2547222203163882,0.10026919590192573,9.565025045147582
17.606692637488656,-0.3020523996776802,0.10130442298250034,9.550839485507426
17.565805988273212,-0.4020479176942522,0.09124007761981295,9.551355715103773
17.625488539493205,-0.47095255587295326,0.09775290561019832,9.551732310130186
17.586897993964566,-0.44921990431605546,0.08897139818171289,9.547684877473314
17.64430186967802,-0.31187023728313445,0.10283792810171644,9.550708852789935
17.60780640683701,-0.24179599175121505,0.09502466590931324,9.537880802900071
17.663182634141503,-0.24481361449734007,0.09554448872109976,9.551979404932679
17.628603300048464,-0.33743984192083243,0.08870634316118299,9.55028964971285
17.68212767529207,-0.3343232486606066,0.1151997956951036,9.557427480975678
17.649455096666678,-0.2491567946456058,0.11131138201714036,9.551235663310289
17.701246286077193,-0.11012509390494032,0.10045924724479086,9.562693575246275
17.670142103991576,-0.019181106679841322,0.10967599502615366,9.553377178609125
17.720412859958646,0.06534105885316226,0.11347309703711926,9.550585095404776
17.69090139271543,0.1072457841062676,0.09877963866767978,9.543801725772212
17.739576215919858,0.16761400823852346,0.1010603253089117,9.562035500867912
17.711472020846944,0.2667692711006277,0.11257195073729212,9.5455872166507
17.758757489994693,0.3955333470896826,0.11488125144922177,9.545695060974348
17.732010626923877,0.5535215361929389,0.11555580937891419,9.555796266829933
17.77802263242441,0.6669605936538138,0.12174109543159775,9.568695549562419
17.75249237904387,0.6999777980393228,0.10950328935467951,9.557477593343803
17.797294865093892,0.685889180039621,0.12294948432080283,9.567001334897364
17.772956039121702,0.7794864742200351,0.12439115217331445,9.571008135156395
17.816596929529833,0.9648464047282421,0.12260628935305268,9.580817628815087
17.79337376694863,1.0841044994835451,0.11441488181967177,9.582384699572554
17.836046347512458,1.1675708377077052,0.13429244072762522,9.586872717946695
17.813912829140374,1.1577349047545513,0.1322971532334475,9.592210981527238
17.855448008138897,0.9094347066039256,0.11459221022466806,9.60168387412579
17.834260761700175,0.6808634794204891,0.10603260988747794,9.616048835142891
17.87492827404836,0.6553733623344569,0.11604063050245401,9.608467036906593
17.854719092798174,0.6756380983330723,0.11347687321903044,9.601850024630224
17.89450264624431,0.6924138171707542,0.09851744618239082,9.601311663034608
17.87514726441859,0.6258887133688398,0.10976505743456742,9.606933541149639
17.913943111454586,0.4667803107868828,0.11011552490658703,9.603846184386072
17.89541773371707,0.3689553497489677,0.1063206351131282,9.593736699406884
17.933498454901592,0.22187483943540617,0.11591707447075113,9.59636314298904
17.915816472519094,0.2017508757253765,0.10914595321495767,9.605741921614122
17.95300926178241,0.06684703820861795,0.10152589510679572,9.61542061760075
17.936051763588786,-0.12071222798247153,0.09470411498044645,9.590742010355784
17.972624224550007,-0.25423657632514235,0.08896707844682089,9.58660428012862
17.95641014519458,-0.41809681628853357,0.08703503151409653,9.57818562387328
17.99221116684479,-0.5557954686468065,0.10220911895081052,9.594009524019103
17.97666212482024,-0.7032624573951887,0.08818811814631834,9.586687217451239
18.011748060380103,-0.8974765289789183,0.08528830656031208,9.59862522839291
17.99685212817524,-0.9948841303653831,0.08162386138932229,9.568564750607356
18.031375067076407,-1.1267135964305381,0.06973938870844203,9.593861525339008
18.017204570069516,-1.2344891567985385,0.0732478114385625,9.579019810918707
18.051038357519715,-1.446327596079921,0.07162684366771578,9.568184236699581
18.037392555392017,-1.5314850999963323,0.07248232139164776,9.566827627929516
18.07064550260259,-1.2723936514979464,0.07353450021008008,9.565353551614933
18.057530941312525,-0.9513842625686122,0.07156384834969859,9.575450386374724
18.090296709624614,-0.8853755349125537,0.06452874728100617,9.561860539765192
18.077735461787015,-0.9804218991268336,0.06238834013143363,9.570796856723288
18.10996613960937,-1.09901336293971,0.08018822028109139,9.586302066654703
18.097943413516074,-1.126522612064715,0.08070881814539393,9.549830007481548
18.129579151198968,-1.0229609653661698,0.09109824553142758,9.560437485406766
18.118091214955058,-0.8096458059744522,0.07362575238086477,9.560374360796082
18.14922669033118,-0.5950448793741346,0.08310010393923106,9.544019096039447
18.138173049817745,-0.4285243049753543,0.07919022216737408,9.578326600218249
18.16882470845226,-0.3423914313697012,0.0906351880890848,9.563126715998068
18.158251372009207,-0.22318159365040025,0.12177559487134915,9.560738542622541
18.188474708528524,-0.014149438251129479,0.09030816311166759,9.586002352273706
18.178359539345802,0.15226222595893138,0.09349681276270697,9.579461526909475
18.208230837787404,0.2683453195065328,0.11802091055890954,9.56025000949744
18.19858322057688,0.4767448971142167,0.11650171071680981,9.590476953794589
18.227959623107818,0.7429307238188558,0.11692115372392098,9.570187150650787
18.218698749182906,0.9636203166608551,0.12475595004704697,9.563217990074968
18.24774355103965,1.1689123051199177,0.14450467092501007,9.595599989942007
18.238944299699888,1.5644281590082736,0.15501468616494152,9.581130156175208
18.267466205518037,1.6723528877661993,0.1200855392259108,9.585163010797416
18.259012062919663,1.7559374174940237,0.14848977421016282,9.592200769088867
18.28726838347534,1.8273528582896228,0.14354543707181047,9.585436797299094
18.279196626849345,1.8420925097300254,0.14720139297312732,9.571387323667368
18.306948744972182,1.96120727241794,0.14553898973445242,9.573147553047884
18.299245306931585,2.13052580199617,0.15253775998856908,9.571741899529151
18.326747397073866,1.9451938794585122,0.1521925438521421,9.566674245215548
18.319374557987526,1.6567088799896894,0.14016547875981256,9.589266336747675
18.346430584189523,1.5278850946055946,0.13408746897598392,9.551262109174518
18.33941841684742,1.4275656362094569,0.13574899135459237,9.56260193006054
18.366154543507033,1.3507351994096872,0.14815437450131239,9.559017358955685
18.35943848187436,1.1885095387389117,0.1420041182974827,9.566175618351096
18.38583415041152,0.9076373792990152,0.1192827598822152,9.586164051171997
18.37946692683236,0.7369249772248003,0.12437579753690367,9.53054853921053
18.40564661905333,0.6060927123724973,0.12201138357449613,9.586991875644735
18.399581102939646,0.49565379605405524,0.09359989519628342,9.568098063712203
18.42534833473631,0.24345421256960878,0.10769325571447992,9.560986006636544
18.419600575128694,0.0656719256596964,0.10445755978300514,9.610703530287022
18.445153702398276,-0.23253468473427416,0.09909413608263881,9.641408714446538
18.439667188795767,-0.4447425936371155,0.11261214663458735,9.559483226879847
18.464855517794973,-0.6166408201854148,0.09946673103307178,9.59514468514048
18.45968682380237,-0.9656878281546449,0.059552897057328,9.571473513541292
18.48461414972227,-1.1545351253382852,0.09052256791814808,9.559532099968425
18.479673045442762,-1.216278294612894,0.07198791305741607,9.565587644493435
18.504324744191177,-1.6438968294057243,0.03806894259397605,9.568970896424146
18.499700025504964,-2.0448691364320006,0.047689151296047,9.571571782246329
18.524175039945614,-2.293535267795368,0.07305177988381423,9.580402259908125
18.519850453448694,-2.3553492826286297,0.0316911606124893,9.560315481700895
18.543930194323018,-2.511996483594337,0.043481269030605785,9.566215023319446
18.539794561809803,-2.1995200895895772,0.05251262926422301,9.569131047391723
18.56365659756941,-1.6095966446407133,0.05551057362689119,9.582847835493913
18.55979662199844,-1.4519748637880028,0.05228389485663657,9.560109552400093
18.583431437086464,-1.500024863587193,0.0775307050851889,9.560255247700637
18.57979957409363,-1.4690773895852383,0.0589370666340177,9.571374804789073
18.603282495915813,-1.444788693108988,0.07200198756489555,9.588107715634884
18.599875382119787,-1.163341174865424,0.06874658444384946,9.582790187460743
18.62302225489687,-0.8148836751055314,0.07905665864148291,9.578868439964442
18.619855674161105,-0.7172862921334423,0.07912623387772816,9.586314732725638
18.642880370731486,-0.6259276636255344,0.10061305148120309,9.565506644844717
18.63992569269318,-0.42435351344476385,0.08736974258793001,9.563430802033595
18.66262496666123,-0.1971058064394764,0.08534567081677391,9.616249363475529
18.659904706287087,-0.049874195889786435,0.11394909658389163,9.561828514306459
18.68246987583492,0.08320086101686586,0.09170062483036401,9.583481964567754
18.679930053486817,0.39274200530127756,0.09325805923985214,9.59743298214234
18.702211952468733,0.5825301995880878,0.1266282705455621,9.572955777325445
18.699904248707643,0.807848627437283,0.12651459110086524,9.58748644837561
18.722061708862952,1.0710608612998653,0.10511687345098111,9.601236400704897
18.719929812254843,1.2581185864340825,0.1476777109872435,9.58549838625671
18.741845054645065,1.4980135108669732,0.13240584692222315,9.584109600301847
18.739916265949045,1.739686158451669,0.13495045057990823,9.587200088544131
18.761726807771,2.0839779716392033,0.16730521657962916,9.601357287752604
18.76000885422423,2.24154366330991,0.14315107143397662,9.597034226756497
18.781614106743817,2.320715537843019,0.1519539821424286,9.59125795111816
18.780078130567198,2.2615296387194,0.12617194158488834,9.571399211891325
18.801488494923117,2.1453127403436727,0.14645499061220982,9.611448999041478
18.800188415980386,2.1555367081202172,0.16282529135113155,9.603206471131532
18.82132319094057,1.933064320443143,0.15513652481821416,9.62566298681714
18.820167092163246,1.6817312937957771,0.12665694866563745,9.573489391593174
18.841132750389466,1.5111409320605875,0.1375795112480205,9.599406533603595
18.840110749177995,1.4914021963342736,0.13229954104148609,9.553109384305861
18.860886013942824,1.2861381741903648,0.1221623869496301,9.583962630980386
18.860044191315048,0.9530816062896262,0.11455286951714024,9.557690404806195
18.880633158400475,0.7515171166660402,0.1491032037755444,9.57344349226102
18.879984009393862,0.7181091664737898,0.10579978004269829,9.579653441829537
18.900417222146526,0.5954515323570574,0.11762921708631642,9.52929492709514
18.89990377460752,0.5021534679582554,0.11142432229505331,9.580991507870747
18.92017140728597,0.2522328187825731,0.13770293584260038,9.59221701459955
18.919836520447607,-0.01944065452856484,0.12563060776720128,9.541876006437759
18.939968415913295,-0.18900044851476103,0.11296765132855263,9.590030563758601
18.93979944100725,-0.41953090904532075,0.08709473364826877,9.503620464764364
18.959830981363677,-0.5860471922783331,0.09576601211652283,9.530061050118347
18.959805436212577,-0.8689263500224773,0.09393825466843092,9.561089484355938
18.979640132367418,-1.1459960430932377,0.08167936332911556,9.503624328287804
18.979777879043727,-1.212958923936721,0.09552112946563472,9.541441638837039
18.999489583597875,-1.4258303625087276,0.07161815805596387,9.523391778489854
18.9997435498531,-1.8675164432123965,0.026375326549984375,9.53400742654021
19.019327296771507,-2.215409136470431,0.0832040623268501,9.522378785782267
19.019764081764972,-2.3146549242879604,0.045824150319858564,9.537837313017901
19.03917632245223,-2.485876605397486,0.035409211493570424,9.53660305103545
19.039831814439797,-2.3998773404049887,0.05550635157624248,9.535553381902032
19.059052910368102,-1.7687598053246079,0.062217279789116814,9.560417141542816
19.059759532681174,-1.4326132912015137,0.05278730843310628,9.552197477505214
19.078853984054227,-1.4196832153420516,0.04923901169617128,9.571804479606719
19.079714794676224,-1.3879084143901093,0.0724761528888895,9.561500664851579
19.098693744578334,-1.4784054748622035,0.06325000376505084,9.568502866716218
19.09967402242803,-1.4721978501655337,0.05763955790184834,9.565321208597819
19.118549792794166,-1.03733970221464,0.09096953910561173,9.588559193972022
19.119628738300776,-0.7401017148761175,0.06612831399723462,9.58949152146721
19.13835439598868,-0.6418491737709654,0.07385388607586517,9.57402729407831
19.139589152020218,-0.5010502484625948,0.08491900631624964,9.587314049977733
19.15815565827772,-0.28494242684482657,0.0710034604665047,9.599747600504356
19.159521700873785,-0.12933428549043008,0.10064103135936248,9.606677702511707
19.177954875643533,0.030570576566458285,0.09326066440972898,9.574032627230594
19.179463155267353,0.3266166110291436,0.10316816666938311,9.653527233588193
19.197798477246362,0.5613231873028504,0.10614237528497648,9.583421875002461
19.199453334102152,0.7251771721785589,0.12180682924968456,9.589590480897938
19.21766571157751,1.0426679907508765,0.10075402505010984,9.615506467171308
19.219368584196683,1.1782757583036407,0.12254870252914159,9.58732579344935
19.23747484321008,1.3822920028992987,0.13122713566611183,9.607542597083278
19.23929061795591,1.6103866141734118,0.12334529444217945,9.615804432518622
19.25729743101031,1.9691054550126754,0.15990752178546463,9.629065143936645
19.259274167826835,2.248980839145936,0.133256996781709,9.629736991691024
19.2772463863938,2.307316312531555,0.1441637646262274,9.607342176057573
19.279327830190677,2.2912674856537545,0.15609067477024466,9.608270254977661
19.29705345509643,2.1718551361410197,0.14969191132078616,9.613675632748755
19.299252954838316,2.1624258872695634,0.15915788387472946,9.622251976486886
19.316949783421354,2.0206858684911033,0.151182133177711,9.61703015269785
19.319233311111756,1.675108257603045,0.12716352395165675,9.617817542767483
19.336775200718026,1.4805098076197372,0.14740612329202651,9.584059408804535
19.339171081066393,1.4832606897617187,0.14133662414816517,9.611690490393027
19.356672153761036,1.4613488648122157,0.12538097730503708,9.557360550479444
19.359226293910805,1.1698575016887978,0.12161230660932501,9.573886086809656
19.376650447965687,0.880289151700965,0.13231385592081502,9.609078209759476
19.379335507773593,0.7364845705286919,0.12044283688604013,9.572662316296357
19.396624551555313,0.547787425181225,0.12820504783874948,9.57015386794029
19.399387366113306,0.4746715407201887,0.09278754819213514,9.562048987421026
19.416524729396173,0.355033528646178,0.12579785133305266,9.616057863013921
19.419409659370487,0.07410765401591742,0.12325924159680864,9.523478612756763
19.436390047709416,-0.13040606815041392,0.10143592737101795,9.606009077984137
19.439352576882037,-0.33653934515568235,0.0645646456896647,9.544049286340451
19.456316352063908,-0.5124698851515489,0.08780887389256899,9.510397441380977
19.459404585216028,-0.7398234772572789,0.08200740289131934,9.542433755124364
19.47627472138535,-1.0517476324225383,0.08774162309578504,9.546235969312741
19.479420407031505,-1.1948486751624174,0.09015151134087261,9.516043020469356
19.496150042530346,-1.3344932744907056,0.06375585740822776,9.513282240257887
19.499372102160905,-1.7847819806623235,0.03883745018902451,9.518696401151539
19.516020535970878,-2.200073830784359,0.059165076616598214,9.522212503727465
19.519390570728522,-2.299648585619873,0.071664249819568,9.525848193461604
19.535949313143238,-2.4398100355840397,0.030984762256557177,9.5043269184977
19.53944575142796,-2.501952724812896,0.048999809841294706,9.505221022236466
19.555843293284255,-1.9167419557167944,0.07719467687861221,9.523284485902266
19.559378528252864,-1.4581794404307669,0.06356347218587347,9.492866280251684
19.57570366310172,-1.4203285455025618,0.052799405237826835,9.518333953449687
19.579275574496787,-1.4121302638811448,0.07563874401280492,9.528421069073023
19.59549370101474,-1.3878921802029938,0.07230661702079415,9.526274365018205
19.599155787064745,-1.4922819060821988,0.08352437043606338,9.509472676543622
19.615295445489593,-1.2613491946446205,0.07378958659049585,9.492536949334687
19.619075700870184,-0.8464392990316929,0.08467991903182132,9.531420589368565
19.635142357065497,-0.6448592775974481,0.0921080753229404,9.519368390164127
19.63897418920435,-0.5679479196268146,0.09827015130211202,9.513304845474954
19.654942900357923,-0.3512687417385284,0.0850875830354465,9.544662948084127
19.658873454486667,-0.10718259997098088,0.09126976447215435,9.540320731184158
19.674851618660913,-0.0223944290270298,0.11942630094151752,9.521790029129916
19.67889243589334,0.18662010431418377,0.10141097600897638,9.549638854312045
19.69468060709087,0.4646877420088529,0.10634366713694239,9.542361057110208
19.69877769961832,0.6771122911943501,0.12369802895642351,9.525312773433322
19.71452016922705,0.9435592690049606,0.13223446662642466,9.552189270029778
19.718786189392983,1.1385695733893695,0.1432056639879029,9.56303768290078
19.73447650078145,1.3434836457424875,0.16054840008930643,9.54524772937443
19.738771861238792,1.5634107875301506,0.11184334767502578,9.556823463920047
19.754417906832852,1.9418064066216456,0.15894780965696245,9.575493611535679
19.758747149157003,2.315864364162628,0.16963694578772778,9.575624637752439
19.774285046390645,2.2650948344606565,0.12954498592597094,9.54070044547109
19.77876544836992,2.2603532988790955,0.16423735349450744,9.564204094948542
19.794193857477083,2.117588311108011,0.1607870588561662,9.555102442849785
19.798777097645797,2.2262575485252776,0.15019223899412246,9.565740173985041
19.814149432136652,2.1004102035939223,0.1684241527859709,9.557831146863348
19.818744666319972,1.6863515052518079,0.1326125548066928,9.551041975935233
19.834031950589296,1.4881539553340735,0.14299583580168126,9.549814107698815
19.838778876398386,1.472555561036267,0.14429329631001991,9.540692232033702
19.853926566812152,1.4441058498112627,0.12351513124366131,9.52218679004366
19.858700964296347,1.2819595823434131,0.14532007075886397,9.501881732259736
19.873860117736324,0.9748475715061897,0.14142259656657527,9.568855261887162
19.87869672517917,0.720894292502139,0.11380187351550941,9.55415199787378
19.893677988134627,0.5973113937952684,0.1513796724035943,9.518531952001238
19.898600787353935,0.5432490810711599,0.11779412278123708,9.52729746195266
19.913609903671567,0.3921356694814758,0.0893756649729031,9.49148991001772
19.91860757942388,0.12263424614760413,0.1222425944947762,9.50861937993565
19.933462749995726,-0.08111559268067065,0.14557701751026728,9.531279935365111
19.938532779574956,-0.2922993344751669,0.061800367384540256,9.517969106747575
19.953351988227755,-0.49890322973342105,0.09938677764272989,9.504893142831872
19.958466462967383,-0.7464383610979364,0.10597972200115685,9.521843671470528
19.973192517712835,-1.0148702058975407,0.08218217622798879,9.504837616120067
19.97839125501502,-1.1403851589681175,0.0969376740471809,9.49135549484138
19.993106590044263,-1.2719376282642902,0.07945669334456594,9.511737868870275
19.99835824752119,-1.740290899951682,0.05576672566420407,9.478350812768452
20.012955466777626,-2.1809938820803847,0.05804903964680311,9.49233326559728
20.01831071085708,-2.3198632101858805,0.08172864281071553,9.48251053852607
20.03292833303142,-2.3637356516454266,0.03299036510177555,9.475725883079496
20.03833759515891,-2.4666686390947636,0.03481554621976399,9.474399869286964
20.05287879239645,-2.0159318224880867,0.08759432207166921,9.505458142145445
20.058394681273512,-1.5249388208091164,0.08286259959319096,9.49236544467752
20.072851900969802,-1.427927287250733,0.04794857381241668,9.497047290368508
20.07838360643089,-1.434927210213458,0.08069337715717341,9.493218205313159
20.092679631625924,-1.400423567992142,0.05162556319928146,9.489586454686394
20.098288771716717,-1.5131835263064533,0.07679491245986185,9.485422722030313
20.112540106189837,-1.3415525520146594,0.07663242379853985,9.482899665116184
20.11815966014295,-0.9098089659783466,0.08575658469566858,9.498977119283554
20.132317821852535,-0.7136083028716627,0.08845097921211355,9.514877256368996
20.138091464055304,-0.6017458622430693,0.09723483614411332,9.468955099887067
20.15221367927965,-0.39014466006356874,0.0939680113265765,9.525906994357552
20.158003830474698,-0.14635363198665582,0.10298612196844557,9.523051463446281
20.172169976823792,0.007272222631636547,0.12261215316816712,9.522058307515875
20.17804543905867,0.21815473824719916,0.12994103073472593,9.528692240721545
20.192117058050428,0.4631033682573482,0.09942254092056789,9.519312134815308
20.19805439281711,0.8055287082895364,0.1295624356474199,9.499843082030491
20.211961832377433,0.8838249680540886,0.12583590669735456,9.53065078719708
20.217935429626195,0.9516008308682009,0.11676021594986197,9.529743762233647
20.231876805571485,1.2423907928410933,0.17171527019143407,9.540373546214385
20.237948855521545,1.5489028468313868,0.13012258747896752,9.536480758091493
20.25175839460272,1.953162457017089,0.1565248186180377,9.535552034589283
20.25789134796575,2.3085686131464906,0.18192256274722185,9.546483777877178
20.271738244645604,2.3530736976610225,0.14323434829730505,9.533359101815213
20.27791886469932,2.2789225957059993,0.1652556565015064,9.546357564772347
20.29168769715674,2.1916497733376055,0.15596296369125465,9.54861119313844
20.297918526092104,2.1379231911531162,0.148789520866824,9.531244615744411
20.311626316431898,2.0990111063259653,0.16479525654021593,9.543875087855552
20.317966964694833,1.8165427178306464,0.14133784936648508,9.531483311115165
20.331529580456774,1.5153462101486501,0.14265018789469347,9.534980417222886
20.33785434928271,1.441058932963692,0.1665420555067787,9.530667777780561
20.35139315208985,1.44313764234444,0.13359306628862475,9.571081587652595
20.357858850919673,1.3155646467446669,0.14117241284035653,9.488931244852262
20.37129580009869,1.0384416626084034,0.14222021361926115,9.528863521280634
20.377765112750843,0.7678147940588989,0.1303040103863252,9.554900458105152
20.391132623568282,0.5852988971685702,0.11574648220837468,9.496189303554265
20.3976536798923,0.5169790820252599,0.12189394951489184,9.558301262541079
20.411059860758705,0.4271897353851878,0.10610295650093267,9.521145334869704
20.41768044544579,0.13841265629565425,0.11986635717092486,9.514218376645266
20.430930146515976,-0.048671174898123615,0.13388559188567398,9.514445231660117
20.437567763385967,-0.32824215224605263,0.08609791325413153,9.523348746203816
20.450857114953305,-0.5258411718836832,0.10048068819142704,9.5039234016835
20.45759520574535,-0.6969660863436459,0.12174653869186697,9.510073369812442
20.4708325301775,-1.0063561354342416,0.06480672418775713,9.510042640375925
20.477590089854115,-1.1302917510258987,0.11088818900030835,9.482765926419559
20.49069719376268,-1.2310047647693105,0.08538373886169515,9.511533674927618
20.497500244576724,-1.7009569139908818,0.07451538289774981,9.521671439669547
20.51063837963316,-2.1711218569556823,0.06492510476226515,9.487526166053263
20.51748822250637,-2.3294168576416183,0.08577692726497889,9.49716200464359
20.530562445658465,-2.367478836802472,0.04999162282871342,9.472183195147744
20.537526080699976,-2.5069099439292084,0.05620019638233921,9.461475793407109
20.550460680343438,-2.0613243000944044,0.07656204898407802,9.493320458478482
20.557419015675844,-1.5377708763480973,0.08711138280042227,9.467609269203022
20.570378315074173,-1.444139981586134,0.04289589000401582,9.468411493647096
20.5774104601324,-1.4423727781711808,0.08285370938484837,9.503337999119939
20.590350475542262,-1.3585918419738683,0.07259084191023783,9.503281385184861
20.597429776018267,-1.4824541068861885,0.07421121727868932,9.490810055644532
20.610240844393402,-1.3936080859157196,0.07198613927552605,9.46863213693046
20.61735639957266,-0.9886493095326296,0.08673395037839231,9.511451741690038
20.630152376220586,-0.7116451518450891,0.09103727642096297,9.523009499891842
20.637379070522687,-0.5870168926320782,0.10124205788989132,9.477267269052406
20.650057343743043,-0.3827765577773786,0.08299874943682581,9.506723286466645
20.65726788261769,-0.13739462743731087,0.09596741258533689,9.503171809681668
20.669865302241067,-0.0004803854630524655,0.11583864742198807,9.500306915842351
20.677148336583656,0.17267907082554987,0.12892151010326722,9.54130690713917
20.689706873942956,0.42626571141796177,0.11979511674602715,9.53251868055352
20.69701412511308,0.6413668262528572,0.13810738098262196,9.515897083991568
20.709555859857065,0.8157940192296567,0.11715159122665264,9.528166709464163
20.716895761616012,1.4102869591635097,0.15458443663839164,9.572249288831156
20.72937392434585,1.3296765905797536,0.17155367744268396,9.542284631732334
20.73677324532511,1.3119744845117707,0.09352581642263541,9.518814078640592
20.749173830948635,1.8208857526440927,0.16815159190087658,9.554609890713243
20.756621186368292,2.2039358195361207,0.17567697377554295,9.54610624667744
20.768996717032177,2.3028657277000844,0.14954294480608102,9.55100779316543
20.77659483075214,2.3495426125574097,0.177011873543503,9.547972064300515
20.78892780672807,2.23559813262656,0.1602429733393999,9.55048780339814
20.796520786332735,2.1968864259523246,0.1579360852211166,9.532755922889992
20.808805523683823,2.215497780224274,0.16724095249329507,9.525176216737098
20.81646134120837,1.8412170063228808,0.14882130226757204,9.526604894421537
20.828701660660116,1.521094761492046,0.14474779642757424,9.537063085435744
20.83637637654776,1.3822130342562444,0.15695424215790527,9.529211930321715
20.848576974965383,1.4351411920933772,0.13410896112113885,9.548020940722227
20.85624832096405,1.371105418411136,0.14488260453240764,9.52277502209816
20.868511960515832,1.128762518675748,0.14171172438176935,9.50717429562792
20.876276638134847,0.7825192486862396,0.11149833738930837,9.540834796380938
20.888394450937955,0.6425875254298132,0.1314186438974377,9.499674637433676
20.89618527228727,0.5485481121758506,0.14749049522153818,9.56897333906298
20.908358953244274,0.4117657660745067,0.1119251424623819,9.558767571927936
20.916247788417294,0.14643011764446642,0.12467409682763403,9.547783813573536
20.928286661640627,-0.044925818141160784,0.15529044683303153,9.528229784366314
20.936181992461186,-0.2988725697883118,0.06233549041760003,9.496033747196735
20.94813369735111,-0.5012844457289407,0.07831071305353826,9.477809884535365
20.956123293995546,-0.7165971624627802,0.11419659514644778,9.48516963728742
20.968034728395338,-0.9900032918851681,0.07617056735307287,9.523415880959542
20.975984852327784,-1.1909496859600084,0.1140787998652491,9.488133952719506
20.98797622415374,-1.2553483457634056,0.06245368108808085,9.513108210664791
20.99604924848088,-1.6709083538099898,0.0516504816888336,9.500766810775318
21.007914372872797,-2.109775616676451,0.04614151513373066,9.462978613108225
21.01604656915697,-2.311689244211118,0.07000512862872305,9.498165553077412
21.027809935175853,-2.380050221128023,0.057615838502094244,9.475622902550567
21.035947375668115,-2.561801134051685,0.062297894106598195,9.486849371669889
21.047692943872804,-2.22648626121945,0.07457471682927418,9.505664101175034
21.055830892046593,-1.6372044476947232,0.08158907113074598,9.480431352394971
21.06754492651359,-1.431181783802021,0.06017733365160525,9.493900708769416
21.07574339966207,-1.3906336841842704,0.0811221900083368,9.513568550435917
21.0874909333117,-1.3822064577836064,0.07155496330654314,9.483978987618734
21.095752052919437,-1.4730926553484105,0.08510369196350366,9.502606374155391
21.107352293018877,-1.3779216432020172,0.09419904364397376,9.492379286838638
21.115667512035706,-1.0596742256453078,0.08641636072424937,9.499308689138562
21.12722600601529,-0.7508280290281026,0.1084516661708655,9.52695224948696
21.135528231281285,-0.6146654812412482,0.10785506831513408,9.483721568159948
21.147040661123626,-0.3916704967821651,0.0845871362836826,9.522021716287702
21.155387431545368,-0.13517071536296837,0.08876653282692307,9.518575453430174
21.166905072046887,-0.051480973785739764,0.11779533390999355,9.503031528643204
21.175316926611433,0.09214067074585834,0.1083476515756118,9.520722811548287
21.186732210458267,0.43421644504976237,0.10440916801823757,9.525035967561818
21.195212665672283,0.6687907354345708,0.13660554924579402,9.521221384516023
21.206693710288143,0.9371215150939639,0.13079570082824962,9.52861817066941
21.21523938630872,1.1234797776479062,0.13172932628341455,9.545714136940209
21.2265733817983,1.2989849063238812,0.15797931582980884,9.528900976154535
21.235168820105233,1.5274872984548387,0.1157323074188855,9.53183352962544
21.246486751990215,1.891156173892329,0.1465613011253161,9.564042157681365
21.255036138010365,2.1991375567638336,0.17166949329484674,9.560413946111133
21.266425560410255,2.2536082848613295,0.15528744080856677,9.56275424822025
21.275061681545733,2.3007532203996313,0.16079623271559687,9.585060314748675
21.286343067236658,2.2654805677487153,0.14868682555756382,9.560343385793841
21.29497263392915,2.2791926646968546,0.16098799109285045,9.569447600402913
21.30620163114381,2.2631796343722814,0.16205272069515586,9.578511548720096
21.31495727301865,1.9056245339901385,0.15398891579141658,9.578914185638638
21.326178564659898,1.6261265892598797,0.14217561776964674,9.589806640948881
21.334960946958496,1.398231741880707,0.12111572044661745,9.600835596638845
21.346171200943235,1.3594297758482314,0.12631548725506156,9.606551824197266
21.35497927822822,1.3406086900327163,0.12084087226775529,9.588698347909903
21.366052648876902,1.1102162617019218,0.11941844615871088,9.591703709291293
21.374888813061773,0.8059708586514408,0.10666908600528316,9.632937315017761
21.38600080126114,0.6866194327203956,0.12882358797066076,9.599447747827831
21.394867736658,0.5510672530528792,0.13156653206494343,9.609926822867017
21.405829948017526,0.43012261499243537,0.09020191810581007,9.587984117891983
21.414725080474113,0.11776272482393475,0.11047337143327599,9.592374653603203
21.425737466895455,-0.10319037082028504,0.12121394557111938,9.567873578248092
21.43467269472732,-0.29705804093672555,0.05715561875337567,9.565013153803738
21.445593462108548,-0.4708980083823881,0.08801136459290128,9.56305435060849
21.454584556082423,-0.706283162092966,0.11267002149167511,9.567226908839228
21.465505634872745,-1.0071659425686033,0.07448601549870991,9.588862264336504
21.474493747412453,-1.20848600226228,0.09370761013517186,9.565002143176564
21.48532664803119,-1.2974967485689477,0.05571248580006027,9.532314061552666
21.49438218324357,-1.666225970230622,0.023513256954685022,9.560664420289104
21.505291423518788,-2.092801503303226,0.037083125118012684,9.541079306922047
21.51440080973407,-2.2627807951290593,0.061933110081657444,9.554819662606464
21.52520958931334,-2.370319258271523,0.040820612391766486,9.542017560481677
21.534392234229383,-2.6459470773644664,0.04345647960134978,9.544270353625732
21.545162932055717,-2.304413289612786,0.0519549059528744,9.553249807404198
21.554394599576725,-1.6631276800397903,0.06345520482745841,9.544755873202421
21.565137521039233,-1.3795044401484282,0.051765018285285416,9.547003077246915
21.574359672698865,-1.3276532884025039,0.07287388065505138,9.568930174280963
21.585090055464853,-1.324514926095754,0.06324938632070015,9.561217918639551
21.594338139953436,-1.4030843642560964,0.0833145946834426,9.563057585456887
21.60492281242902,-1.3992410583267796,0.08088675447249787,9.535882506417435
21.614219151968843,-1.0756269137306298,0.07196585201787156,9.544279882907006
21.624773060430307,-0.7630943658434797,0.07723443033216418,9.575685970734762
21.63410230864864,-0.5962800636496172,0.0872197263080784,9.531011531315862
21.644644911312604,-0.42746678679584527,0.08987158034242004,9.569731974574083
21.654071436657933,-0.19657112317029618,0.09210721363169881,9.565781984178674
21.664557287764865,-0.0750543679341173,0.11361410039834495,9.543617966734187
21.67397960036928,0.10654256049710958,0.09342616540148507,9.56693845544345
21.68444233264256,0.3606287222152684,0.1009372907246564,9.577227939496316
21.693854228379294,0.6143800604717304,0.12018142399844015,9.562549419061138
21.70430313117026,0.9753464055893968,0.12847723642631115,9.578807999090158
21.71377211621063,1.1254464745198811,0.12029407653799343,9.571917354109848
21.72420896666548,1.1866713840681828,0.14000411862082981,9.551789565399671
21.733709684408574,1.5682064775216287,0.10911177146673007,9.582208592778816
21.744175596630683,2.0050815496996335,0.15354016808453308,9.601286706890537
21.753723045716768,2.248947914195719,0.15302206632996948,9.583927935742192
21.76413111018746,2.2687160222778946,0.15956892338510528,9.587666101908265
21.7737066666354,2.2814642282911013,0.15494150242087437,9.58494704863558
21.783989329742656,2.204268217532895,0.13987115779692003,9.568102517387642
21.79365458851373,2.270411357503164,0.15254091483636606,9.554491578921214
21.803983476045996,2.3371965000819794,0.14712034459903983,9.587718351643838
21.813640217123442,1.9054724398132745,0.15135094619127776,9.591899308871993
21.823802973869935,1.6239111462869804,0.14410191866939165,9.577363407054264
21.83353001060411,1.4012525362119668,0.13543208549662084,9.590360613672987
21.843770455441494,1.3848993361655972,0.1335582408058915,9.561743827830654
21.853582041225202,1.34972068630934,0.11199048160932455,9.58098215083257
21.863682506711967,1.0996933214679752,0.1431836701100016,9.542964375432165
21.873509948230424,0.7785551592966341,0.13491894028533166,9.629715415142675
21.88359918969429,0.6890808674561923,0.14037541534860845,9.617135311220617
21.893374398860853,0.5039910786697913,0.1379193165746232,9.605947384367257
21.903419721466467,0.3589298186153495,0.07866703408085368,9.604958617520898
21.913267789740658,0.1688491172170702,0.09849136644815489,9.546099870662882
21.923339498969668,-0.004619341910574728,0.12262832873795636,9.567469289330598
21.933239247492025,-0.25357033945591717,0.07570442631473845,9.612596929548447
21.943205930624703,-0.5107581701824458,0.07717005453343045,9.536754716448092
21.95314205734358,-0.7216002368221155,0.09323905477636835,9.568739286112402
21.963113020122165,-1.0398121913665888,0.06066124530747551,9.588308650206942
21.973115760862967,-1.2424968885697942,0.08492271536209287,9.587295679307818
21.98302535898408,-1.24470820790802,0.09869319538756641,9.623875661967217
21.99302354074371,-1.6182040912383084,0.053862044827351754,9.577412587730905
22.002910411520585,-2.0683473345313454,0.047642590230217545,9.581149846888762
22.012899819093768,-2.270193417816215,0.051869751300672035,9.55959716133193
22.022819633131235,-2.321637349754702,0.027491525182996635,9.58258830447364
22.032838734875593,-2.561421225532305,0.03365249717566909,9.573947989222436
22.04268638263288,-2.372887225762305,0.03569556180342163,9.56975213852496
22.05272851858044,-1.6968787167200778,0.06286776867584534,9.586863890182846
22.06258105316129,-1.3756951787621765,0.05614959146241662,9.588142346492582
22.072742876290057,-1.3502514972069333,0.06977095430798073,9.584251629124616
22.082545948550386,-1.331346548812371,0.07411536100972861,9.597886814515856
22.092708167611022,-1.4353704110928072,0.06448442958833615,9.5771316684286
22.102524214370426,-1.4903432804451515,0.07413648661459014,9.556718427685269
22.112762962954143,-1.1750256335888527,0.06238580513208317,9.56116299071101
22.122466440547555,-0.7670872067250946,0.0863485080047427,9.609797859617228
22.1326662350884,-0.5524680945921334,0.1033962350064795,9.572220833847323
22.14228749835584,-0.44047950634859356,0.0809103203608581,9.587244081227187
22.15252068620165,-0.2253490074594804,0.08551240125750478,9.61302346348235
22.16218191436378,-0.05650193339834745,0.11162450028912536,9.556276447091111
22.172468318004995,0.12336843780509493,0.1001101059492926,9.599764922406642
22.182099609516808,0.40450694252797104,0.09841151801825809,9.590568364319315
22.192481115675903,0.6272763738966607,0.12115724730062283,9.575271209027079
22.202015660802957,0.893621327406261,0.12860053531428045,9.594648006605896
22.212377817167482,1.111818675034258,0.109187228525365,9.609299568688895
22.22199135936127,1.3085169563664258,0.15924261333972656,9.596169649572435
22.23243227894917,1.6024181808238003,0.127476915464772,9.607899306074145
22.241895950966686,1.8830013034480615,0.15195512650607496,9.596929208668973
22.252381803156922,2.1845303727236516,0.16073440542618034,9.600208315848633
22.26191691735568,2.2965209339050654,0.14816946388931015,9.602491138926064
22.272367267183697,2.2778026694324383,0.14678567796014438,9.608966830185553
22.281752906082247,2.247015103738165,0.13810088998902736,9.602536468557096
22.29225237685834,2.3077077034135565,0.1553256345758346,9.593050140122141
22.301721433831517,2.348973861234172,0.13909839920351302,9.593793511821252
22.312264665046317,1.9450227695253788,0.15612789642463848,9.609582787000662
22.32156909514616,1.6324298992353272,0.12562865536708606,9.599165938127324
22.332157889625325,1.412684685110156,0.13562158260209423,9.597435932040423
22.341482617208968,1.3176107016483045,0.1396115223147038,9.576765771305727
22.35206061400185,1.3418542563730727,0.12365015104164719,9.572793808082489
22.361336485682592,1.2054121471043064,0.12376476909916193,9.51505866313155
22.37201467096682,0.8789768712742522,0.10144816401309086,9.61136047346627
22.381350848790348,0.633129200205331,0.1411611198398205,9.570261711760477
22.39201203978474,0.4952701699718465,0.1168590864061768,9.549047127220849
22.40122614674235,0.3665875572415727,0.07750729124484702,9.55859214517008
22.411913966606637,0.17479303939225968,0.08792769018133793,9.531949265284068
22.42118970873184,-0.03561765918008927,0.12130474840877166,9.572610375188466
22.431929548952695,-0.2697718000486497,0.08755765456900903,9.563827046877185
22.44104110371804,-0.49946615755338986,0.10278734740438673,9.539805025379088
22.451815492940725,-0.7029885578929935,0.12053102989514362,9.545311750956616
22.460948402085204,-1.0279467049943498,0.0693274041000278,9.524810856221986
22.471717650738583,-1.2143583153093067,0.05807176911520001,9.458152154485957
22.480778897517016,-1.1998711675077334,0.06343313278868033,9.53720620217582
22.491604208794072,-1.6333255020254098,0.05977214132089612,9.516775742209438
22.500700280523898,-2.0738728057050566,0.06704534048375808,9.532716699765473
22.511547896578804,-2.2525306611377123,0.08001165953258473,9.503317530446447
22.520637549579813,-2.3524652774363535,0.03043594868299361,9.507196307404811
22.5315739730115,-2.5518999529030677,0.04038304738776493,9.502156614615009
22.540598262133365,-2.4167204603765953,0.05051556903429105,9.530823864542354
22.55157070129532,-1.7842803234062967,0.09403401914434253,9.526434252667201
22.560545542373802,-1.3678273171541897,0.057435931475368567,9.510397904082456
22.57148606289538,-1.2977517014591058,0.05970767441302571,9.528355192421106
22.580480695892362,-1.3392655719811495,0.0734851344320863,9.546178770669195
22.591480857864223,-1.4500951961571096,0.061795892545979864,9.528710256017115
22.600332105006416,-1.5133782269728768,0.07941673192823565,9.527121236390782
22.61136577433308,-1.2047900355176737,0.08599775053862876,9.519616601032771
22.62028972822325,-0.8009651340804812,0.08282062605551649,9.541777608419599
22.631341904530853,-0.5918081271202676,0.09256923871775496,9.524843427529689
22.640161041281136,-0.4259339902084147,0.08726786468322377,9.501537874563692
22.651247862166457,-0.222180535453185,0.0815440330482769,9.569015898455381
22.660039466212794,-0.06595134487697549,0.10586862469368175,9.509934107208759
22.671124714337044,0.11739145445935209,0.10793779410630198,9.53401941887518
22.67986173970953,0.36758178080914883,0.10074951412746254,9.559995915620913
22.6909973779023,0.6061237200254832,0.12566888850590818,9.529928049312552
22.69979843485504,0.8682624663072721,0.13438015280784588,9.544297998728213
22.711033116917733,1.0806369844891635,0.13365235962539537,9.56204277096679
22.71971395687456,1.2501327238582787,0.15085602014200233,9.539863179413492
22.73094005041048,1.449939480737198,0.11834270960146978,9.55099454227308
22.739654689557426,1.3925884582762373,0.1256512440017106,9.550108134255552
22.750869939306597,2.6700557491115195,0.18326898288170293,9.535463997611187
22.759483654802025,2.6742363185875764,0.16585172874209864,9.56046836261752
22.770810479042044,2.1813263059765986,0.12994743183207672,9.569464809250254
22.779482570229874,2.1453611956946297,0.1742902105353571,9.563063874129872
22.790833716598986,2.1821840005901456,0.1584246545592612,9.585865688381977
22.799358328427076,2.361213251392014,0.15218897398620138,9.542215770607184
22.81072125937773,2.033112153874091,0.14341358373327867,9.555859667905938
22.819300005888007,1.6483508855880666,0.13958190714581248,9.556501225720572
22.83065200900147,1.4345307446116493,0.14410613320199214,9.580095507502854
22.839127004600854,1.3190534417539368,0.14315331680645701,9.53912547572417
22.850517348611177,1.3127902973506809,0.12937394346985698,9.555982207288467
22.85907288835216,1.1636146050393952,0.13091561842722862,9.49581251393622
22.870554559634527,0.8522409291346946,0.13204441453819543,9.562411129753208
22.878978271985662,0.7329052671930727,0.13619623944159365,9.545395304797777
22.89044618922985,0.6530686275659187,0.13823083357691918,9.564429402305203
22.89890893810422,0.41367870965435727,0.10568492417164368,9.561390308298014
22.910439010536763,0.1628610224872467,0.10028234257378417,9.523054834189542
22.918800525940497,-0.00023857464303162954,0.1369679753912801,9.515562219693306
22.930326646027908,-0.19166711343619788,0.06716580762983307,9.483983539462926
22.938668378310705,-0.4541077470041208,0.06177569326937868,9.499762320598398
22.950298576759764,-0.6785835721877498,0.13092914059885805,9.507187176435043
22.958590887776648,-0.9679840052423411,0.0816819972331159,9.524015085886765
22.97021498085878,-1.191200211300283,0.08996290004140589,9.51144708089623
22.978496068330394,-1.2374082893760336,0.09133506427314177,9.501526881630411
22.99012679266308,-1.5199283128176022,0.053803671287280086,9.522975702295234
22.99834982624817,-1.9803068952398246,0.06711932880003423,9.509024479154013
23.01007383547647,-2.287403214068437,0.0766159047723125,9.507145829219992
23.01828655118398,-2.478013226033221,0.04635821267885134,9.490940869578578
23.030032262764312,-2.5160812369257908,0.04688344138458755,9.51440878127601
23.03817750058633,-2.435662809939976,0.06024621487832064,9.507838873191234
23.049904030670927,-1.8241851744439221,0.06749873713463504,9.500174891991383
23.05802400878555,-1.3754771760431945,0.08072668269186058,9.519464672665011
23.069809396243418,-1.2849150474269238,0.06528678345501038,9.542776738370902
23.077911996838612,-1.3724088907826704,0.08041023136238502,9.54505933396565
23.089682212994557,-1.4919490482954563,0.06246618514185262,9.55205330689785
23.09776699060408,-1.5199614345388923,0.08023205664579303,9.546277487657207
23.109564791108475,-1.2484260646056886,0.07064359196999034,9.557951248689516
23.11762459571538,-0.8444641368348447,0.07950165739831538,9.565397339465617
23.129467143516504,-0.5779739200147626,0.08553633803669448,9.569399131001804
23.137591918361025,-0.43561063882022977,0.08907561929112484,9.564488366383253
23.149470273538498,-0.21430772213369523,0.0829510012746341,9.626833622124812
23.15743431948946,-0.08989754689361186,0.126442665730478,9.57946048647163
23.169355980511526,0.057786184430809774,0.10652176784446077,9.584996959859819
23.17732787865141,0.35154644708058186,0.09861002430177929,9.58399707939761
23.189295669872305,0.6100181566391149,0.11086306176576054,9.572789251197543
23.19715925283899,0.8165997630053705,0.12222550323535619,9.565775250627052
23.20916964309782,1.07402325983678,0.10150943505654585,9.599441378422345
23.21705434429704,1.2294600614813431,0.14395267807440795,9.579182925823709
23.229122669863216,1.4531016247947934,0.11312451720329475,9.604662305289752
23.23696682942812,1.7857829005402621,0.1334374737803709,9.632346063767482
23.24898500038437,2.130151185679747,0.1524438816912766,9.63989185354405
23.256805863201038,2.273923228295325,0.14098052437980008,9.613684490933998
23.268852951184726,2.297638713155784,0.14572409384426374,9.606394979082093
23.276636488261982,2.27343997259677,0.1472484547949879,9.603690437303925
23.28875035158763,2.238732320060579,0.15107500782687638,9.624487422980444
23.2965971482937,2.3624556599211184,0.15102785750622105,9.602339777350648
23.308721027104113,2.069243813545275,0.14661193743228518,9.608206409818003
23.316481953676558,1.675129050020729,0.1406709046524545,9.605831012545757
23.328693608240844,1.4552596230663326,0.12411394914623791,9.606647520569393
23.336478435137856,1.3297518412624172,0.14587614346120892,9.601555509180955
23.348665943331486,1.362767764753517,0.11460193439220412,9.589928982588608
23.356309685001126,1.2445139977109179,0.12779293710393783,9.575102271776553
23.368550038496394,0.9322003685280436,0.13095521497355514,9.602880035603851
23.376169458749818,0.7200855697442115,0.13513822669746256,9.574054014946007
23.38843132263105,0.6201603875654333,0.1268642404166956,9.586652560754727
23.39613311885445,0.4558749305339392,0.11141348831719847,9.618696440324536
23.408428949453114,0.21829170032774836,0.1126160102218604,9.589270157564133
23.416075482124363,0.017603407834925266,0.13135457530751388,9.549808853332456
23.428413963255963,-0.20029126610257558,0.09024524525678145,9.590205998362002
23.43593111877516,-0.42503078236620023,0.08188009087605147,9.58157766620583
23.448293191384316,-0.5922291671562562,0.11645299462268754,9.535351955891922
23.455770075655437,-0.8479459328187033,0.09147281168745913,9.562856780658935
23.46814004211657,-1.1830937422703123,0.07684392467040829,9.531347123384398
23.475596922131658,-1.214889732135746,0.10161027753591162,9.564410709971282
23.488032900765358,-1.3671967305035173,0.0758580970783681,9.5673580450384
23.495561286054908,-1.8326008116698789,0.04892268743357278,9.547401869592068
23.50799608725039,-2.21602550377053,0.06357294999432837,9.515813998795311
23.51539009543744,-2.3326011039237833,0.05361139918645885,9.520229449297991
23.527918608986297,-2.477269081829766,0.046462555845423775,9.500545302444547
23.53529473732371,-2.5415465078866704,0.04544475369291403,9.509942956006128
23.54783899435657,-1.9829380516297794,0.0646098228766863,9.516898096092293
23.55528494673841,-1.4108518876851937,0.08008000906694793,9.51417444122241
23.56786013172164,-1.2846986254715551,0.06236922203062374,9.542136323198365
23.57523996571645,-1.2993556629493423,0.08523346856230332,9.539741919893178
23.587855647944618,-1.413948557067827,0.05807647270004537,9.530937973115506
23.5951554671269,-1.5520839795803583,0.07839309509530985,9.525229126021753
23.607767531408353,-1.3685735521555715,0.06262565775217625,9.506412869638348
23.615011933814724,-0.9372961915614163,0.07471206549277375,9.52792144002586
23.627715515909415,-0.5946870068549992,0.0940870212201434,9.536594223178119
23.63501085296462,-0.4629844437331536,0.10543020347325893,9.493087626434422
23.64772870964924,-0.3264961006243111,0.07110343000965925,9.574424602931186
23.65489572196401,-0.1624252150528724,0.1047120744772258,9.54840249604433
23.667666068899763,-0.004082328200573943,0.10246732124674321,9.544390720171341
23.674857907033967,0.26173123227968087,0.10173424971506656,9.551235439607751
23.687633832723293,0.5232561162118566,0.10325045982709269,9.545271692369326
23.694817272067354,0.7710855003516103,0.1466875722668903,9.559677599480647
23.707600452184565,1.0030127288887796,0.13319924729150218,9.56945217477795
23.714658072162724,1.1763376850382599,0.1455964091312066,9.554471852203
23.72749239997526,1.3451415813687648,0.13887173368008052,9.560102141985212
23.734620826728246,1.6947369774252785,0.13202242935466985,9.589740799733496
23.747466663719003,1.849188052436456,0.16863032302958392,9.570139827251742
23.754463692188022,2.2628244513792706,0.16201158385031456,9.5844052943703
23.767347018244617,2.5967042795956643,0.18855604321195196,9.573410794825678
23.774313305863785,2.202108075066055,0.13269535435093419,9.568079082485118
23.787250572240854,2.088530830824447,0.1631241939936884,9.562800033730912
23.794145767595715,2.2444217105759683,0.16648729074190924,9.55949183941703
23.80707302065433,2.218304338956423,0.15393190589806574,9.570085832125349
23.813964070766332,1.7833637002520906,0.13195776339068663,9.544357507940116
23.826947422806555,1.5749309805629963,0.14951743904724493,9.583227564485815
23.83382092234409,1.3894440287458578,0.15869215624213706,9.56791210251274
23.846855743587117,1.3520853447779793,0.14601205983709278,9.570661048425997
23.85376300400939,1.270002045736625,0.13530304822833644,9.530045768416487
23.86677902630235,1.016636942268221,0.13792907339179278,9.541267906878202
23.873580708723555,0.7310557206621241,0.12315515165946028,9.5328856981802
23.886650358147953,0.6554120681400741,0.12698913483293545,9.508516323088987
23.89350501869824,0.5072533354460343,0.11516071046074505,9.559054747278516
23.906664280973164,0.33437265196747246,0.10610199032664425,9.529106508274443
23.91339571982074,0.07200777624571811,0.11395986268304713,9.521673315981246
23.926571728583,-0.05856585580560256,0.1397349135607418,9.539983929629052
23.93333544027597,-0.33919523901395066,0.07122962573904122,9.522709670844497
23.9464976259421,-0.49925213784951633,0.10729570844842967,9.510587909972458
23.953164233388144,-0.7626593217754448,0.11067489017376415,9.511523490959604
23.966394021699486,-1.0811024899276596,0.0722912192712116,9.502754755056229
23.973117544108153,-1.218641632621585,0.0925602534141963,9.507742822630965
23.986358685407616,-1.3162272120621863,0.08813020488915861,9.557433085032264
23.99295483179728,-1.7348900983100788,0.06209666428885298,9.517361397181942
24.006258255696817,-2.0925774336499106,0.07511147712964843,9.4998478533657
24.01289089806119,-2.2848325822032614,0.06166851994506226,9.486591975080627
24.026196097318383,-2.4279009312933884,0.044216082393958446,9.48044426349056
24.032836876060966,-2.564806797504335,0.06037549289376536,9.50180884716309
24.04617403188108,-2.16201063469268,0.08195562804078861,9.51707351228181
24.05267186685878,-1.5678231911242704,0.09064170625060432,9.490618218590896
24.06609613735075,-1.3072993799272536,0.0643779516643343,9.5157715756755
24.072599915923433,-1.3076621033274525,0.08579877069373065,9.526261430864114
24.086025966480815,-1.324255794355977,0.06793142284129226,9.511990792757606
24.092549499977792,-1.5058457952326176,0.07550098268406419,9.505640415036098
24.105988667793397,-1.4123920733358146,0.07493700160972716,9.481902544748014
24.112417980025818,-1.0419504546249196,0.08945602586059542,9.494556505167349
24.12588118580812,-0.734458486617525,0.11321211611041576,9.519477700934363
24.13225778415108,-0.557359766017287,0.11091857969814607,9.5072421267711
24.145772212107673,-0.35625827953741285,0.09122591985269014,9.539943972422334
24.152122219088483,-0.17750935920241628,0.1021301631001461,9.52267415572156
24.165726812187998,-0.0607192792854133,0.1149514727115647,9.521075067368539
24.172038511430944,0.13407899084797756,0.10820807070700052,9.520294704544613
24.1856191251155,0.39503015103942773,0.10139527466144671,9.527828410768016
24.192003103805618,0.6282356323800665,0.13200238801550596,9.51596232895342
24.20569360006588,0.9341062691094312,0.13074954901898672,9.523988871617961
24.212015880232695,1.0997412735303849,0.11537480066316073,9.522638313255538
24.225664344564024,1.2390691794379314,0.16527374741132533,9.53858633113141
24.23185771512798,1.4968589463732123,0.13296199417393628,9.545620087667496
24.245562224383967,1.864202314443947,0.15970298198851587,9.541545593200107
24.251781036582052,2.2113470727068605,0.16788968764477358,9.545964992244265
24.265503743803677,2.301804220188262,0.1434350952112847,9.539213762998036
24.27170505413347,2.2892251006042628,0.17242403159833974,9.545754184808917
24.285444676757905,2.2601620428058435,0.17049949157010902,9.55627362088424
24.2915477430379,2.25678463951627,0.1698743397771868,9.55483573711091
24.30536640076035,2.2206553721074727,0.15723344741457626,9.557086647484333
24.3115280096982,1.8669826141403765,0.14722576601645895,9.544322052379979
24.325382701491115,1.6058034669630694,0.14548151417526642,9.545160405041896
24.331498068680062,1.4044666881288117,0.14391999224653726,9.55792886080413
24.345418023238864,1.3505124434705476,0.1554853461735182,9.536340804251674
24.351385405165026,1.33442493892309,0.1293778255753781,9.52503840716693
24.36532039727984,1.0613317663294786,0.12699980246180917,9.515818815805563
24.37137305073011,0.7926006886554532,0.11899644514051955,9.541723168273894
24.38531766259623,0.732049206701859,0.1361944992661895,9.502707145001596
24.391207716270934,0.5735304180003146,0.1343375258547895,9.558179104319787
24.405176175877077,0.4056689583586164,0.10124636793279645,9.519440744385951
24.41109554211641,0.15402396296369908,0.096918057217397,9.522715691253934
24.425105547163156,-0.00449354652096438,0.15856461459980678,9.541274358869313
24.430996272418767,-0.25347470723477133,0.08161065618777544,9.502468725317547
24.445019130617457,-0.43559196166704867,0.08818238052867704,9.49484597487256
24.45096897552651,-0.6488219372241235,0.11433049084507074,9.518212045800253
24.46506382683154,-0.9802447733101802,0.07169515526744837,9.52604247909638
24.470823785759308,-1.2517890020577411,0.11234339013231778,9.497255901568504
24.484938098919297,-1.2648303049023706,0.09924245121628605,9.528385614261305
24.490660638495715,-1.4587858335966435,0.06442943221720274,9.525366218895078
24.504791868815293,-1.9189169076116877,0.058281680981316766,9.485000944902735
24.510552553025505,-2.236569965321091,0.08548148993817427,9.477734095004058
24.524756101368247,-2.3510575690725797,0.04425661879222076,9.474449222585546
24.53040471578356,-2.5524792713291418,0.04597667072914022,9.462907576055434
24.544597531475944,-2.419261070954114,0.06289059251958042,9.488432455677403
24.550217613885824,-1.793870414563449,0.08297178040159475,9.492973183676996
24.56449673355481,-1.410910345316402,0.05590514130450658,9.490211093790075
24.57017070657207,-1.3084129959703816,0.08623796409955453,9.507403422260412
24.58446968851301,-1.290647233036143,0.06500503456478475,9.50266096247667
24.59008508316826,-1.4282574208605825,0.06976907940815734,9.481968332812018
24.60442226435983,-1.4231428125105587,0.08748002869757088,9.497844834095181
24.609915372239442,-1.104791190930319,0.08915856337065425,9.48395084491739
24.62431452256238,-0.7769878621721928,0.08655999660143025,9.521646424066489
24.62981764174681,-0.6236232436373376,0.10646096509894672,9.520799036085215
24.64417501780734,-0.4326664544330349,0.10318414174696122,9.505442664069673
24.64962738979057,-0.25567338668828804,0.10189139092614284,9.550130594482619
24.66405114850251,-0.1330423387356385,0.1172078613203101,9.493619447773494
24.669459929185265,-0.03350697052542025,0.1259133170321706,9.525004552242162
24.683953733252594,0.2997149941055594,0.11254622134278447,9.521145700994248
24.68941775752898,0.5873415322874689,0.12607258894739817,9.517563681433032
24.70393273395844,0.8009784308261989,0.1354719116905372,9.514582175688625
24.709292986660255,1.095708695043759,0.12792836164826002,9.553689593217259
24.723847441469488,1.163336396379631,0.1581337017824452,9.542645326127818
24.72919153288635,1.3666146336741993,0.14158622442442412,9.54493804640809
24.743747635971648,1.6491554750767152,0.134743548559314,9.549288889988897
24.749003169832687,2.036911313831047,0.16819590887068359,9.536722944450295
24.763644098805862,2.2707513308904668,0.1441912429237308,9.547182434979009
24.768980857140704,2.2988677156564683,0.1692493896766838,9.55441602943731
24.783644009535788,2.306602253334988,0.1661358792246088,9.559888983657311
24.788812520852574,2.2483142487901366,0.1653953569306344,9.560441101257371
24.803545700114025,2.242640164060051,0.15705625538049814,9.55575194321202
24.808767714903265,1.9906728335666188,0.159479330951168,9.560669545333662
24.823526511518853,1.6844422694513306,0.14716917435265894,9.54291537332385
24.82865143601353,1.478284105845872,0.1439656729373517,9.5509114225896
24.843409535148368,1.3638361962870382,0.16677904858379886,9.553602534332914
24.848567988050426,1.3494929943123353,0.14554503589964016,9.544980801941254
24.863419474899782,1.218633533254865,0.12184583704461494,9.52970392509885
24.86844590242423,0.8894415647136672,0.1415550528273822,9.568658837898333
24.883336453916392,0.7448479577622487,0.10450636045053041,9.518295473664121
24.888357310064873,0.6402389924065116,0.13940959167156566,9.54230213605992
24.903247747343226,0.4917090164327504,0.11707734149502534,9.527522903998861
24.908215989268477,0.26161991386829303,0.1050503830749475,9.518857746106393
24.923152268492952,0.07337380900161199,0.13869528633749803,9.54106648302461
24.928072148203512,-0.11035077538784988,0.11185756957999089,9.52689228272651
24.943034481614827,-0.376674677992984,0.05238449050865606,9.489331746373676
24.947960477545358,-0.5773020220096322,0.1148578865329567,9.485445440097724
24.963028549095906,-0.8238214515617979,0.08088382298785178,9.491908440795418
24.967850624660667,-1.1437403630089593,0.08607031996680445,9.50587863906909
24.982911052835764,-1.2514263813841957,0.09029825843450555,9.487636143949945
24.987712409620187,-1.3046762929805789,0.06606538422554321,9.540264901790072
25.002836958003194,-1.7703050169307328,0.0482467779121017,9.49603003093318
25.00759547110798,-2.1509390508869584,0.0685034819867044,9.48909250858986
25.022713087397467,-2.3029137505071424,0.0758479925215005,9.49577516621849
25.02746531097014,-2.454340008114589,0.04282181577780341,9.484993350487278
25.042646318891993,-2.5191133078434174,0.08443589874616352,9.498594321901003
25.047344251644507,-2.025841824747778,0.07646447702497916,9.516432296534111
25.062557246650744,-1.5063900203756353,0.08288213746194185,9.483294280182596
25.067207664707297,-1.3703705478700599,0.06144047188197439,9.50193979779864
25.08247027422276,-1.3360269813131815,0.08106560696310093,9.51422639082775
25.0870983038387,-1.4025990844346428,0.06418995733686426,9.502722709978674
25.10237847027003,-1.4641009075092541,0.10509905249360739,9.505131851283071
25.10696810220587,-1.2583178702210762,0.0844805286172072,9.491493584372481
25.12230263389409,-0.9047879327715402,0.07206052554456391,9.506966659436245
25.12688920704115,-0.6918307429627473,0.09837376239602559,9.525418442185982
25.14228353529223,-0.4976472268749255,0.09773181260322428,9.498876079292051
25.14672915931827,-0.277581211931946,0.09432264727347019,9.53383370110598
25.162173110258436,-0.15458670105730724,0.10099936702082604,9.547305876543371
25.166657769434394,-0.10586092648912189,0.1250523856767856,9.496985235673764
25.1821182453772,0.1695957315570957,0.11529893708754112,9.537040820327285
25.186528683257436,0.42698562488595676,0.10844511904963042,9.528275466694483
25.202045790144446,0.7381592189817132,0.1285347941201051,9.539766087297869
25.20645517924306,1.0712743156315472,0.12542410667995477,9.560136503299002
25.22196829796489,1.1379663199693095,0.13327061290871134,9.538718579956955
25.2262804730374,1.28953559906003,0.14795448082360751,9.532762656097054
25.241887697078138,1.531864107817655,0.11604454281208519,9.560409397704428
25.246188113739414,1.861744938408257,0.16544029260510185,9.555797930557032
25.261823260940318,2.2229777413870977,0.16280887817066336,9.559679514780427
25.266141597889444,2.3068966304403107,0.14841838078411074,9.568615943827274
25.281810560409312,2.287406728985598,0.16481725308064782,9.565320987754232
25.28597440330691,2.2437553819714737,0.1474094389060134,9.559458682515793
25.301736597001725,2.211357157698284,0.14868439909814005,9.581011271852196
25.3059636556252,2.0780669834915004,0.16683270120003152,9.569935096398558
25.321717230228934,1.7733619553884623,0.13999046027108702,9.566033628744332
25.32583060642446,1.5447683811774797,0.1271139218698326,9.58277590231986
25.341689684950794,1.4014737704525162,0.14842281569613724,9.603519748898414
25.345718569160994,1.4251251189686092,0.1286948189749718,9.592335375423842
25.36161555490957,1.2776056101842002,0.10922193392319549,9.554251924996697
25.365656386082577,0.932683383252396,0.12020117169563245,9.582206117130497
25.38153573324533,0.811388645901316,0.11285400662612435,9.58118849219401
25.38548000124736,0.7212410958537164,0.12552145406324455,9.590738276920682
25.4014574628474,0.5437660698838228,0.10754651440201297,9.639564186704332
25.40541102894902,0.3452997907141188,0.09618164860439758,9.588216390482279
25.42138732927571,0.15600209709883062,0.10763729265146818,9.594337405770077
25.425233665794728,-0.0311462908109579,0.13238423701116128,9.608364995387165
25.441289538371862,-0.29769863026793286,0.04570491911266689,9.568733015144025
25.44509016831379,-0.5181406514808993,0.09735565287483294,9.572916756291274
25.461160465265227,-0.724675870157685,0.10706557851993655,9.569134714424857
25.464908754013486,-1.019325843998461,0.07428909385822903,9.582905501296034
25.481049222133795,-1.2574947505394318,0.08389308192095826,9.55839493133099
25.48474323220605,-1.2980885371128572,0.08220947910490173,9.620585132844163
25.500913422612612,-1.5810441361884393,0.06975339117977149,9.571524782878058
25.504676773991736,-2.002734796190764,0.04106585512646326,9.565473015435538
25.52100030077115,-2.2607868778075533,0.07678199798250618,9.568832845471503
25.524600963694898,-2.410842272537659,0.04217979242076629,9.552964859559317
25.540945722210132,-2.5879137459861052,0.04886033532695494,9.54799879828922
25.544501354777445,-2.1766698561196125,0.06892916571406868,9.570404210154242
25.56079979253112,-1.5650337392318558,0.07879147415792552,9.557758502004578
25.56429666982302,-1.3782321546875194,0.0548764023602881,9.544350261784528
25.580657850316996,-1.3673828318676677,0.0880941485941467,9.566307464750869
25.58412353541296,-1.3611081460129082,0.0685870328233931,9.556793533762885
25.60056733503521,-1.4408732824972448,0.07680618563835126,9.569803445340856
25.604073030586903,-1.3547165618139836,0.07747925369996575,9.544932275479917
25.620538057467456,-0.9993043049323571,0.07761898134282284,9.548395952798648
25.623896456297715,-0.7485664997317161,0.08456601789033402,9.56256152478704
25.640438463704875,-0.6184283052220115,0.088073188409382,9.556157819639958
25.643823598898635,-0.3949773872734931,0.08187052282839798,9.577614981558067
25.66040008824916,-0.1800093236030123,0.10721005179085621,9.612025880942884
25.663643955060987,-0.07009149413546766,0.12628809590613962,9.565551315517093
25.6802785259749,0.1216924829829684,0.11565175251097681,9.589285901073191
25.68359024863386,0.3459915949935456,0.09420607492543778,9.57620738181001
25.700244307063898,0.5859804018880618,0.1297086688624502,9.583718273523164
25.70341325264288,0.9279656860559291,0.12835661943048401,9.583027445870782
25.72013551889004,1.1603221165391224,0.11589143860750406,9.58627313284111
25.723348486771126,1.2541531133874062,0.15379272832154056,9.577508355699004
25.740134134660572,1.4687833878987762,0.11600029757209365,9.570535994845699
25.74321588706658,1.7828381533107494,0.12711492180033904,9.58803871286777
25.76009580849889,2.1418622760704342,0.1697002414701028,9.600232265216775
25.76321332199989,2.254201664203703,0.1436428163375125,9.57972078346935
25.780103772013703,2.2182312127725394,0.17525180996935996,9.590087342913774
25.78311283654481,2.349902023672424,0.16071620201268177,9.586009467942928
25.800052134119753,2.3126548962164075,0.14404891176714293,9.587130585666777
25.803054961931394,2.0717552139616333,0.14882520421835171,9.598283158708472
25.820024351262408,1.7979087631535746,0.1590368789927632,9.596492311876577
25.82292286443419,1.5593846494760788,0.1378796887789628,9.598688256332876
25.83997694608023,1.4247760198085924,0.1459373310051391,9.55998499499953
25.84282125197818,1.41379302124261,0.14150980627927676,9.607333733919805
25.859952475373337,1.3956177991929035,0.12497034638554977,9.54161175501542
25.86280271562856,1.075149218209431,0.1330318276401912,9.540023595180527
25.879980721077132,0.8426916191433533,0.13176507405592683,9.57536101503245
25.88264236217596,0.7172321347054865,0.12288876613948543,9.552530528246946
25.899890110682406,0.6130695289536189,0.12606927843248208,9.609418972275268
25.902509818603303,0.4408419384753914,0.09657839589274912,9.55681093166189
25.919734206041667,0.17143635346414607,0.1043655231316399,9.57826287412478
25.92231309521444,-0.03776736704251145,0.11966299686355159,9.553549444897085
25.93961724194536,-0.1968581144427296,0.07736634799348634,9.593698160819427
25.942152567777836,-0.4279463641663071,0.08119197293743183,9.611784011676999
25.959542888336884,-0.5859713781123207,0.1172758728793456,9.560510261616153
25.962004520872625,-0.899059941221058,0.08613671330045931,9.593937799648428
25.9794382610786,-1.226729229295136,0.05915146489723906,9.54249565781354
25.981938836496926,-1.2792529557183745,0.06813089667536355,9.603890041910763
25.999465697263886,-1.489864354665701,0.04950206016350986,9.578147394884146
26.001905729487078,-1.972827850931996,0.03782073001350807,9.563534518300647
26.019459235344705,-2.206785244121188,0.06642099560605587,9.582971361855977
26.021815545494515,-2.3322554731142633,0.04442159817856832,9.587658034358695
26.039488742078674,-2.5249452535700136,0.025795474786326867,9.585704628971582
26.041725273142134,-2.350920043426553,0.06370883633514193,9.585728917224099
26.059383216621455,-1.7145477305754253,0.06277924542839042,9.589071270050862
26.061684584266473,-1.4258004251845462,0.04267813995139834,9.589108066674576
26.079469450528098,-1.343736905825498,0.07463463317371921,9.594692246198834
26.081694563990837,-1.3087354888310068,0.0524486304575911,9.574400544897356
26.099488266316158,-1.4578267389083395,0.06738096235476954,9.589934465176489
26.101558380914486,-1.4491313625901876,0.08432805306880697,9.57805335154041
26.11942327554206,-1.0781483044381817,0.07748178834802122,9.588100642803107
26.121504464320243,-0.771336458376208,0.09076544278303106,9.608321253680877
26.139386757685465,-0.6272742409628072,0.08457388123478908,9.581133631186015
26.141326690169393,-0.4400963976724433,0.07275872327292963,9.580275406019076
26.15931783316449,-0.22663861917762973,0.09218551960522892,9.619627232971066
26.161215879902088,-0.16031086389489901,0.11143015824227376,9.593932943500397
26.179226846484575,0.05122110784820856,0.11433628684337092,9.616931033498226
26.181054882741815,0.338364920837666,0.1102290848655852,9.629819839585524
26.19917874228513,0.628834737312852,0.11060861289360141,9.610031734780557
26.200982683908194,0.8798584660464016,0.12842146360239906,9.617815235752053
26.219122250769416,1.113491547129059,0.10609042346438774,9.596484675393919
26.22082118536879,1.1702060928399967,0.14565025522594569,9.614130362490819
26.239034026351575,1.4140906819248884,0.13407484056465135,9.59968991708217
26.240739520639092,1.7025669141093236,0.12234243032523062,9.613103719673276
26.259050012693248,2.105852130007215,0.16437333174907334,9.62239883668546
26.260637599484028,2.2677996255893964,0.14605528597883286,9.621948835424078
26.279003774310418,2.30809091715954,0.15273960258633013,9.620256144187584
26.280585987079945,2.246537020743468,0.15034625146897482,9.602383107769265
26.299018658014234,2.2259669316997903,0.15622713965445517,9.615626254859404
26.300415530025898,2.171885259829639,0.16118114832328145,9.597517451047842
26.31893809148555,1.9124019239030283,0.1491891455284404,9.593413126444405
26.3203004733,1.616249129474849,0.14073369210299902,9.601501823265426
26.338853915691864,1.4571469348304305,0.12640060279266474,9.59324730821408
26.340144121619392,1.378245102968231,0.12979325263925284,9.598893717443064
26.358778470987648,1.3872938988505865,0.1194999508781127,9.55435729051158
26.36005422215862,1.1481857797899282,0.1268603425649827,9.578866119095935
26.378746447306153,0.8851685748943862,0.12041788337320421,9.61164034056516
26.379874326227156,0.784176933119018,0.11918567378797662,9.549776749534292
26.39865575499837,0.6375277458011502,0.12879353314236,9.584422069853856
26.399808523707954,0.459848709582868,0.10422924266412714,9.542361027711996
26.418630271880172,0.22847267679757532,0.08604225296431556,9.566292206369782
26.41962474748816,0.04308922155706918,0.15795460763041055,9.565257383201027
26.43854477966937,-0.1717542912156804,0.07994741084494317,9.562607132601528
26.43951018752842,-0.40554391138562046,0.08340512176450836,9.56143780267458
26.45846646149929,-0.5772527705083654,0.10489284789295619,9.53209633332347
26.459314567363784,-0.8721231287176261,0.07657871951083461,9.55480473312547
26.478390087651185,-1.187563479272724,0.08300458411549634,9.517290837497619
26.479203787047744,-1.2746697790855217,0.08524509757516344,9.543837360626119
26.498296356748643,-1.428439872007646,0.06391144127796082,9.540678138897066
26.499006399322504,-1.895282519167276,0.040911697252719315,9.529524202548911
26.51824381822567,-2.1993415045778284,0.08186635594061381,9.533314654859568
26.518957150414618,-2.3066667114532797,0.05285716746361352,9.536845405608288
26.538270114637637,-2.5104909917867433,0.041763170299660715,9.518966370659708
26.53890466020049,-2.456274688347427,0.04823245181521604,9.526200531264667
26.558349327163302,-1.8476632273853302,0.06419777008567655,9.518103383241622
26.55889061770301,-1.4536869551391458,0.05012026444094987,9.508485799039113
26.578343415871316,-1.3549964536299592,0.08480387675383959,9.531875139044134
26.578732505218127,-1.334985761976445,0.08415421317678717,9.537110616437728
26.598283446305796,-1.4365398994950347,0.06721796535493911,9.544414202574677
26.598644433565074,-1.460028047299939,0.08205070041671694,9.519856339937581
26.61822784097228,-1.0957711468145224,0.08592798167279436,9.525751149704494
26.618451533582956,-0.8147494264198472,0.09517012177955625,9.536993492875263
26.638149742232947,-0.6892636523662948,0.09006433614645215,9.515951011706418
26.638326448114494,-0.5157919253749811,0.1038365792730383,9.536273031527159
26.65807184269732,-0.2597306051101495,0.09757336453186725,9.56582512771009
26.658144251689805,-0.14749017170029108,0.11382880929285798,9.536772768242868
26.67801445418982,-0.0015502295213086618,0.11438683428633678,9.541389639755652
26.678059166457878,0.2878938497732206,0.10580625208783855,9.555136762461009
26.69799430634744,0.5073061337878422,0.09541336521436283,9.550271523691114
26.697862112706783,0.7929348767764836,0.14587534358141474,9.549360042970154
26.7179060235637,1.1149995071028398,0.11462466270587637,9.554131764030604
26.7177915408578,1.167943731075792,0.14244584169692273,9.543489959556686
26.737912731144405,1.3975512108970056,0.13658752468650762,9.558731513912573
26.73766577501854,1.7104015476140788,0.12868992550135858,9.552382606569715
26.75788669558441,2.0183539392958525,0.16799443795436447,9.560955333102923
26.757599472890146,2.2627023788544918,0.14400209153644836,9.561281987130569
26.77787280225422,2.313326725234423,0.16342237164875695,9.574909109455191
26.77738875961427,2.3288570280430334,0.16442275219511304,9.559643836164472
26.79781301409932,2.1476138833235043,0.13456097484856588,9.54925952442948
26.79730688645215,2.1059008880117775,0.1600112881345216,9.551390985746151
26.817761471217683,2.0430160409467044,0.1706586802995381,9.571360706053188
26.817092129689254,1.8035472983520795,0.13292532705719579,9.551841854529977
26.837683519975,1.564832388999266,0.13499763179811272,9.551378884692804
26.837028750779275,1.4045581153040014,0.15291568510968107,9.576685346027036
26.857697993770632,1.37549378742473,0.14115083153897046,9.515459148872964
26.8568643291931,1.1631707296346698,0.11931405448808721,9.50117545898048
26.87761021524119,0.9003029485249544,0.1292627640403566,9.556250431712058
26.876717259236855,0.7742100493852643,0.15427173803644306,9.55525142344788
26.897619326454176,0.6734239829372769,0.14939678131368359,9.559201940230475
26.89660361958167,0.4878907498692362,0.10940279182134618,9.540202541637951
26.917570761337068,0.2683889923712293,0.09970442107524265,9.542987567122653
26.91642438730064,0.024011633697235888,0.1622891753317548,9.535538756589288
26.93751545913512,-0.16211659462830985,0.11170908991681903,9.507516806334712
26.93634093047598,-0.3749142551280425,0.07122238613166704,9.523232354823104
26.957557781887104,-0.5433074429232866,0.11473524913895446,9.48253033967269
26.956182282482686,-0.8270736001141037,0.07333456687943392,9.521968133749786
26.977485293332787,-1.1727194712331075,0.08740221257348181,9.506527842625067
26.97608054772743,-1.2967037354191948,0.0780597449435494,9.48169396996079
26.997529102349958,-1.3982883480014605,0.055920537293196626,9.512058813206044
26.995953357802264,-1.846652616145401,0.04608148838695253,9.498548530892839
27.017470690294683,-2.1882810754299955,0.07164038477030031,9.510404931998735
27.015814204957145,-2.3370893301926814,0.060322282169191714,9.507621706112005
27.0374346409701,-2.495634220900671,0.0436934443319051,9.491653101827028
27.03564147392474,-2.5248945387964707,0.0605313278924644,9.493279761299416
27.057411676434107,-1.9203250014317401,0.08818882177870628,9.509184608765848
27.055598083775166,-1.4492756153336885,0.07688699245995571,9.505876676490926
27.07748201627718,-1.3723793501765258,0.07086352716153932,9.52658204163304
27.07543774605593,-1.4073473296549726,0.08026442843840188,9.523961527525763
27.097457180156148,-1.4459289947374812,0.06728011962766714,9.54781078179115
27.095309158696416,-1.4923654947250002,0.07850548819290469,9.529586114679054
27.117392671600186,-1.1833041239005972,0.07737604283344952,9.543652677918331
27.115147466673506,-0.8181708332036,0.08343447319203895,9.57791228462365
27.13735191024646,-0.6637020399860071,0.0821792652987958,9.53580586769829
27.134990333407185,-0.49217854725573834,0.08534265781673445,9.559118956763502
27.157306988828424,-0.2616360203033519,0.07360989337878703,9.592669050837994
27.15486870177678,-0.13113479047909238,0.11252939349310809,9.603762732228777
27.177299402467654,-0.0038860562356358586,0.11674609391429087,9.571110311614085
27.174726017710373,0.2623283926224259,0.10619237513821266,9.602185464544894
27.19730807716802,0.44927375240179734,0.09873370456614926,9.594440770724116
27.19454928530284,0.6672838402075941,0.11430460122367991,9.594165414243252
27.21724279785225,1.0194783014299245,0.11466031783112696,9.598577502814555
27.21435162629034,1.2370987334383092,0.1376419194941586,9.622955413802595
27.23713318799065,1.4442401236352076,0.13158438083313498,9.614237983538773
27.23414546948,1.6386864851771994,0.1224147027531145,9.6313395349259
27.257074529299956,1.9774654859967478,0.16582855413171263,9.629793006918016
27.253931248438263,2.2388457026355533,0.14811866656376013,9.62710413735798
27.277024828718012,2.355366871717702,0.15828798637758032,9.608988472908708
27.27372659077906,2.3645210503901057,0.16950077542657274,9.637554746082714
27.296992433582957,2.2928475127795553,0.13690088217735477,9.626464157859523
27.293676061102463,2.2966934627986526,0.16349325083410396,9.636213805612165
27.317068260229064,2.018516982584647,0.13606460784806174,9.624825141883903
27.313500578070744,1.7183466441791433,0.14105673389444737,9.608278303714533
27.337060263501954,1.5317846783580629,0.12722470845544917,9.601453661438784
27.333446629820788,1.411195236196042,0.13556307093926848,9.628695400823286
27.3571339980688,1.418262720219064,0.12056581671398925,9.570766479311313
27.35326470343969,1.2081004347173623,0.10774537613770344,9.556043725780947
27.377047559412986,0.8743580365323945,0.14329900540531657,9.642222123805993
27.373130290854093,0.7727132937808797,0.14712280389260773,9.607632763175085
27.397173318634966,0.6861838188412529,0.12233838950391472,9.598946845691904
27.3929854379884,0.47746919289375334,0.08670399709408005,9.574133497601885
27.41711391015898,0.18740105379211458,0.08393288552484723,9.57785981526707
27.412779120066165,-0.11330037066242821,0.13222713461192773,9.581170447023394
27.437072174124523,-0.34932947595670316,0.09774809644262178,9.570381349015497
27.432603936058985,-0.6053158201130813,0.06879107752181221,9.57554069468916
27.457048732025125,-0.8622048632928081,0.08386631790722472,9.553956995641085
27.452502413296475,-1.080996588056905,0.0951676610363418,9.554399472358257
27.477171508708434,-1.2892337286867939,0.06172339700316146,9.566035814662227
27.472348854187086,-1.3243243375232505,0.08788415779644693,9.572126361093364
27.497122826769317,-1.6882602483392066,0.06998438506744285,9.53932620284134
27.492260291658233,-2.026954568906763,0.05939303744320112,9.532796877493237
27.517233251534385,-2.172125236988751,0.0605107829571274,9.53227854977958
27.51206624768116,-2.2350752540100447,0.062010270771766275,9.523042859847797
27.53718228026993,-2.3651640231454576,0.04489843041698442,9.522623923885519
27.5318970721925,-2.015331120213402,0.0770378715040655,9.536473479854443
27.5572552161634,-1.3752754355729386,0.0892512664180491,9.54255991064823
27.551724054499456,-1.0315800839449432,0.058752184114780705,9.543686528596014
27.57722523431437,-1.0539587036835956,0.06784497650837697,9.55487778527871
27.57160291509527,-1.170048999640062,0.08449092321401769,9.533334040554028
27.597311962997356,-1.1338780450843875,0.08497960876432341,9.543924484404519
27.591497280254067,-0.9785332361214805,0.0906118002686992,9.527497654958724
27.61740592853234,-0.678437979441073,0.09042431393831302,9.55319681592099
27.611343059579635,-0.40425698573645885,0.0972778285708078,9.541667693205731
27.637421541933595,-0.26972422265475304,0.11073899632558513,9.544333717603257
27.63121234211475,-0.14609525939376178,0.07960266525039285,9.554520204162365
27.657526083722374,0.03009093809690809,0.10314032480097282,9.527064404822088
27.651016819779752,0.15409884542114888,0.11283971460472159,9.551751099683358
27.677550736026127,0.2971558797658115,0.12438116133010169,9.54539306990949
27.67090869570492,0.5405879279957827,0.12503480757941385,9.567270814275407
27.69765348981702,0.7664896494030708,0.11204500295087204,9.555147375581505
27.690761674008186,0.9085480154802934,0.12944980502882011,9.53943920928669
27.717689682724547,1.0790787792013083,0.13095931079013992,9.553010289205417
27.710528829435333,1.2729820921470973,0.1227410861443617,9.557376124335738
27.737732302555408,1.502198032555539,0.13391717583136267,9.564854766671655
27.730360715905817,1.5012196328821583,0.12200469213202168,9.555065395481899
27.757707406682893,1.4428760033101735,0.13981273004813655,9.539958746589623
27.750159997947094,1.4483594574815244,0.13768040574423948,9.563894241882144
27.777821413179126,1.4606139794254165,0.1405731379762029,9.57877397409195
27.769965642543283,1.5114254298697736,0.15260464729348522,9.575137478243862
27.79782860131315,1.5490536393364684,0.1489977100806544,9.577560817616243
27.78979746221021,1.5273880240827973,0.12281119064056144,9.553785257870219
27.81795449439116,1.0195663923231135,0.11387269210771517,9.55331071800056
27.80956750597582,0.8633899469029475,0.133422228756188,9.539140753354095
27.837961669562805,0.8521489810794632,0.1419500891887633,9.54269408689008
27.82934535667701,0.7245842471459134,0.12460553553915166,9.545551264553565
27.85797824446311,0.621011042594106,0.12415510783061934,9.525619922617839
27.84909768748569,0.48404411880687725,0.12928636970947496,9.55827373784271
27.878013790079592,0.34976717952292624,0.11860684997884674,9.548783887199784
27.868938462729638,0.16525083415600278,0.12338952458440676,9.536109655149813
27.89813944927971,0.06095758412920911,0.09195784441925067,9.5412680225606
27.888657697765662,-0.08041254332029195,0.10985490028679863,9.522269361072281
27.918166660460642,-0.2072846611028506,0.09414972455711863,9.529006595243043
27.908475346056395,-0.3681060559192897,0.0920760933919928,9.530425644216724
27.938229021698596,-0.43037038343054435,0.10762245526922545,9.522622386700023
27.92815121524294,-0.5380926418605297,0.0820057911632635,9.53453771155831
27.958246195209018,-0.6985324832909385,0.08827769810762048,9.528377529968603
27.947977882608384,-0.7563137552965221,0.08042465562219958,9.528602026242348
27.97835571082635,-0.8011005868245681,0.1025563097882623,9.520254937749623
27.967661046382013,-0.8172934385762674,0.09103937411983876,9.517196212413493
27.99840716835198,-0.9105813782829716,0.0843974502701102,9.509313217701509
27.98747956354078,-0.8936427937321577,0.08830696269106497,9.504624172858257
28.018516458615224,-1.0885826390121387,0.08714054624713671,9.530998688701095
28.00715413119577,-1.0803011060130094,0.08931643002235812,9.529911182486325
28.0385583864972,-0.8157476020735793,0.10148178742600943,9.52705091614101
28.02694832008213,-0.5309432377640583,0.08980137034243675,9.522889282814297
28.058695862916224,-0.3268615905129042,0.09637641907313689,9.51231634736692
28.04662301859574,-0.3160287172120422,0.10116198296900612,9.526329267354544
28.078768488180685,-0.3891705997550478,0.10301500201604569,9.50463945506943
28.066347016121274,-0.4032505061330987,0.0988183990181274,9.522036130004286
28.098843569649446,-0.3137412860858761,0.10990091957364832,9.521977835217188
28.086005698595024,-0.17119827070429855,0.09779042801841781,9.511578322036033
28.11892055998659,-0.05630182855717804,0.11805129445109497,9.53306055728243
28.105766879056166,0.03950119233352351,0.09843785474138529,9.521053652825847
28.139068807214954,0.08466386830531407,0.10347956909642105,9.537196043787523
28.125395644774713,0.10798340002917423,0.11854349455377843,9.529579608590415
28.159151955063038,0.22947028147146084,0.11022392021280723,9.516810804708816
28.145109047690262,0.3535700053552977,0.12395772063311826,9.536568278856976
28.17935305033716,0.45141459674512197,0.11691401592632211,9.525467330448476
28.16485628827513,0.49743961413646676,0.11809486909604956,9.533632828684286
28.199548976545504,0.472164784915368,0.11037915566797805,9.534090033684063
28.184621148540618,0.5145634707185941,0.11955215695588427,9.53202248078007
28.2198047246009,0.5647554390700681,0.1238436524599037,9.545273513804693
28.204315836856104,0.5906873932930394,0.11636538578232858,9.53776161643819
28.23998547632175,0.6005383920040598,0.12514779829334907,9.54136515197458
28.22403310232038,0.5965282626071337,0.11257657720950334,9.556632388363457
28.26016808762318,0.5515353524672126,0.12031946896200484,9.546900131098527
28.24368728905293,0.5009854145896565,0.11318440309688277,9.570078008200602
28.280393291625046,0.5028728059416018,0.11372864410076389,9.562420939010265
28.263286092779268,0.4474135305355622,0.11456273180535977,9.574332176575295
28.300583583341865,0.321203128227264,0.10863316411079459,9.57803231961987
28.28294231585704,0.17290179809825698,0.10689060072497177,9.564922560318442
28.320736333182648,0.2316240416011228,0.11591358028109729,9.583208432600493
28.302508459340316,0.23610034574546554,0.10139948082321813,9.582483798232682
28.340926202107404,0.05636054524224976,0.09627380963426486,9.583540178536518
28.32203289924669,-0.1389480949655779,0.10179999204545016,9.576674898141702
28.361125111913715,-0.24578835399744847,0.09688389364677548,9.587078708974474
28.341588254183435,-0.30165098731579376,0.09253753502795092,9.576552850363667
28.38136897869549,-0.42464796410628614,0.08657242304090847,9.589232662946387
28.361138771225082,-0.3278369683605466,0.10940442748188302,9.590497811989062
28.401617396770348,-0.187336551375386,0.1049494512671053,9.590804935000817
28.38071190363313,-0.09095269304760102,0.09723743988313018,9.575068730002993
28.42196933579087,-0.03257288171509031,0.10276197665485694,9.602467965633275
28.400280893910253,0.03732632468016674,0.1074283180432472,9.59686594098528
28.442319730048226,0.06742634718699295,0.09543671488156485,9.574969226424264
28.419853403823897,0.07380016774203411,0.1128363057730934,9.59785916237564
28.462643273768794,0.047982950825420076,0.10093718923714215,9.579701622055095
28.43927163951922,0.04764830759004582,0.10365524268938398,9.573817437815052
28.482947678474268,0.07362172661856563,0.1076990223412238,9.585080082908648
28.458701767147048,0.07778285800684613,0.09576166481831187,9.593747544449434
28.503277785824892,0.055876930174540575,0.11181489871135049,9.583462613365777
28.478095078264673,0.029621754421699367,0.10807660354519073,9.584822742056575
28.523655470819985,0.048873854157447404,0.11276020006622696,9.575152075288463
28.49748905547012,0.0662673240828877,0.09498843076659447,9.588675894416953
28.544058707703854,0.06250941737626914,0.108484757803009,9.579405689116662
28.51686165418303,0.0680974375455259,0.10856160354904165,9.578984286396988
28.56446110954303,0.05778283350862709,0.10718417384410323,9.577855293045848
28.53614593541232,0.05771530585171363,0.10053979388658624,9.573308102279825
28.584913889057415,0.0406060468448505,0.09937651557754085,9.578792121527817
28.555457583574494,0.06847089535947772,0.10115814023678844,9.57071241478022
28.605433401554446,0.06553609655791894,0.10786506864498067,9.562807803597986
28.57478155428791,0.053266794628830695,0.09984264990559272,9.563604340183428
28.626120304422585,0.04870851010615568,0.10118610892686647,9.576234866482759
28.594038453995683,0.04689832833409766,0.10177976856836697,9.559654461116097
28.646751607900157,0.04352153297727523,0.10455587429178799,9.563294375695923
28.61328617270353,0.06163370386116899,0.09859258462261555,9.562913890767668
