Time (s),Acceleration x (m/s^2),Acceleration y (m/s^2),Acceleration z (m/s^2)
3.8239973429076892,0.06647774704223652,-0.1314367039352472,9.83741683344024
-0.819167319087218,0.06220946816027633,-0.1260744315927423,9.847709481246183
0.5005848825453488,0.06933581501590315,-0.1322151094300156,9.834134858860773
-0.26657522197060574,0.07349258710895128,-0.13183902944906667,9.832300669572767
0.29685445195912163,0.0705296718940779,-0.12967601222734393,9.832721789126538
-0.12308731542147139,0.0771745540180423,-0.13540353707025626,9.845582099137113
0.23844762500357924,0.07127904332769806,-0.12538289748297157,9.843398951529737
-0.048926423352987296,0.059115959945463245,-0.10341643090042103,9.837927219413029
0.21872301449883802,0.06455815837219263,-0.12725454067547004,9.853919712698914
0.0013907740057014257,0.06675438327182229,-0.1219678391716254,9.843537164031792
0.21475480592548682,0.06264266985289585,-0.12981009895966958,9.842767490430731
0.040743872547407675,0.0665000256001583,-0.1264369463139177,9.840325175047445
0.21872717394758345,0.08107821036366947,-0.12108364569119653,9.844413209198464
0.07416014963699753,0.06758598584528286,-0.12627425489808894,9.846114747126961
0.22725549332164416,0.07926203962320198,-0.12175096166255239,9.836913043707446
0.10400296168800005,0.07425902950874931,-0.13592616943129648,9.844590313318252
0.23863830641753722,0.07733760785271634,-0.13403478912947805,9.843452795014354
0.13152919307943725,0.06882802470806315,-0.12628599457981715,9.841471648819416
0.2519272283777799,0.08276943734465227,-0.13804441893180178,9.8282910229688
0.15746830373761406,0.06836580087672214,-0.13060010184235815,9.841067398183322
0.2665518654245201,0.074899063096833,-0.12739405433558548,9.840603384582241
0.18227274365245572,0.07132232499512323,-0.12608242101197456,9.835296967615903
0.28214862311763633,0.05767032545361117,-0.12980182553545858,9.837613538179149
0.20623807636259042,0.05810380223488642,-0.12729966905052756,9.84008865005466
0.2984747477946681,0.06580220635140968,-0.11741496980147206,9.846813757731367
0.22956517541987984,0.07653452945609479,-0.12016649398100591,9.834202298236317
0.3153624479076359,0.07245455683191886,-0.1283027862859938,9.82970387435954
0.25239573447622776,0.07320322944946783,-0.13038003190028832,9.843843856882698
0.33269124210263495,0.06507949237272448,-0.12985716950238335,9.834589294550701
0.2748323703272469,0.07523738324777098,-0.1308583435576296,9.83727422386811
0.3503731116951544,0.07045086514140998,-0.1343283711001731,9.82909331021037
0.2969514354190443,0.06818688957273741,-0.12291760260261124,9.840868494086363
0.36834199113324134,0.06521441698331124,-0.12970122587357025,9.83537317644174
0.3188104857025349,0.06901401125496621,-0.12409973228256829,9.84369028186704
0.3865472784928148,0.07727650612684739,-0.1352325435565615,9.84424479990972
0.3404539775703747,0.07595279076821093,-0.13191347686512844,9.8374697519228
0.4049494810691767,0.05461714198443775,-0.1419947614857355,9.840206050164303
0.3619170060275929,0.06283143507622255,-0.12831348856297645,9.835267951663745
0.42351767168222837,0.05883780945426302,-0.13527599439702803,9.839637624612156
0.3832271416223641,0.07522691620680991,-0.13085233645200953,9.836578069988393
0.4422268101208448,0.08514503265621816,-0.13193764944379213,9.842515509111436
0.4044069576203054,0.08046375084175668,-0.126412140129108,9.841049555121
0.46105683448969503,0.06966352042176202,-0.13176355240011917,9.837607391701695
0.42547441130734714,0.08031971529834973,-0.12628946095103966,9.83041377691997
0.4799913151870991,0.073159459920166,-0.13345174005453098,9.842046527111851
0.44644458150896643,0.07086964074789784,-0.13142193628196855,9.84763808934659
0.49901657089774665,0.0658269042182763,-0.11694294129033493,9.84146974195673
0.4673300515484026,0.06966717279806026,-0.13025395160513986,9.82468971821398
0.5181213444067612,0.05583518546652422,-0.13286815418531947,9.84046416068403
0.48814077996166444,0.07054227640383333,-0.12516492253940273,9.83628318962217
0.537295966029832,0.06783605036316864,-0.12729729740368576,9.831445665650492
0.5088859856227468,0.07312981470527974,-0.1416553850302456,9.836391498627515
0.556532491298713,0.0683384871381008,-0.13656638669250254,9.856876533028018
0.5295728069253497,0.06731539731499925,-0.11885783803402027,9.838771946537113
0.5758240535117818,0.07212079784349273,-0.12968660305746652,9.840221717391586
0.5502076812111627,0.06618893883207466,-0.1321958357113746,9.833251092171356
0.5951646541321208,0.06906955334857752,-0.12264942942972225,9.83862255917212
0.5707959728851869,0.06357957098820274,-0.11596151127969005,9.833581446950529
0.6145492405204865,0.06666838875289513,-0.1326709923186088,9.841689001289465
0.5913428112888788,0.06474362077810561,-0.13201864113699657,9.840538575018371
0.633973571728459,0.0667662257381549,-0.12980597035323943,9.838185523475333
0.6118518965306312,0.07184283089388642,-0.12038634466719336,9.850412313338914
0.6534335493345016,0.07937664269319436,-0.12575294477401658,9.837024280422016
0.6323268619792106,0.0776537046416534,-0.1365417494879113,9.847911576061566
0.6729260673931058,0.06380541071520468,-0.14293075928842797,9.836702385190822
0.6527708266511323,0.07674521427567337,-0.13014656596849017,9.845939932482482
0.6924480066160124,0.06265798753093589,-0.12947507679595877,9.843222158628533
0.6731867117956263,0.05556161005401739,-0.1316397115944065,9.835734773343992
0.7119967387355329,0.0677948575694369,-0.12876850495864586,9.836192228551866
0.6935769310268691,0.07937132821965016,-0.13629323453829212,9.845157668260484
0.7315701401750404,0.07279984977196638,-0.12288044738212286,9.838205706283405
0.7139436037290637,0.06939018146175613,-0.1408206885075605,9.834625537841248
0.7511660699317875,0.05804110362787098,-0.12632526800544802,9.840303164043355
0.73428872491529,0.06432222805379689,-0.1334286204023521,9.839248950815076
0.770782740203302,0.06965145760602094,-0.12442700612368938,9.845538427084051
0.7546138206186809,0.06405670424945441,-0.12721120789034182,9.835457204641974
0.7904184039923302,0.06351534465747635,-0.12079905094268835,9.844187980726625
0.7749206552723894,0.07062844139234224,-0.1328005686506362,9.844955014821904
0.8100717058446626,0.07784927581626985,-0.12633572988314315,9.841228377757043
0.7952106536374974,0.06273530954571079,-0.1291674762511301,9.840021220104955
0.8297413514733348,0.06780972737159617,-0.12205909764194477,9.83909924558444
0.8154849758464652,0.0716617291411478,-0.12038701332402767,9.842752094794797
0.8494261037751673,0.0705920364638293,-0.12156256242116403,9.839280490779974
0.8357446957727422,0.05838758565728063,-0.14403450195788686,9.835642019489468
0.8691247958953375,0.07752822975246183,-0.12527579455835752,9.840265546184652
0.8559909050589274,0.0740219683415393,-0.12707450206487922,9.846985266753475
0.888836596367218,0.07342931558800735,-0.126703134401479,9.841781829944654
0.8762245406494725,0.069676574196409,-0.12988983431938883,9.843256500680583
0.9085605437095083,0.05616093607166824,-0.12216009064160996,9.842701035673404
0.896446454112932,0.06996423076328785,-0.1344911790324064,9.823646667411523
0.9282957138143126,0.0703447034830133,-0.13913571466825578,9.83983286332229
0.9166573465447819,0.06985243234670535,-0.1352562936083059,9.840470802874385
0.9480416091158962,0.06017350116639733,-0.12404774546334363,9.84023937162552
0.9368580164374154,0.07370759386224783,-0.1323112002455535,9.837241459504654
0.9677973756135935,0.07003424931257274,-0.14333631290839383,9.8402880181163
0.9570490136556067,0.0655083963688345,-0.1326451738444348,9.840981700747058
0.9875624861914639,0.06022316474212031,-0.13028129030763802,9.843481597830234
0.9772311241689171,0.062084994038685795,-0.13860639316591425,9.844866678864046
1.0073363498822658,0.07291771554446887,-0.1313333521774431,9.839628893621681
0.9974047776634456,0.07337276462867393,-0.13114297845655143,9.846767546404054
1.0271183778300546,0.0690873298248759,-0.13878743679090244,9.829874372587778
1.017570350597203,0.06800184395120563,-0.12658287946322683,9.83650709424447
1.046908220231222,0.06872304442589935,-0.13536172020211237,9.838815108113925
1.0377284754545555,0.06862303857806862,-0.1191981324512768,9.831954500009964
1.0667052423147059,0.06320637389030734,-0.14061483843988862,9.843804549096314
1.0578794282185462,0.06309316736772864,-0.12856884177285527,9.849664421545187
1.0865091153157977,0.06864999665771938,-0.14384305830249638,9.835882849937125
1.0780239368781712,0.074473047298981,-0.12388609091961157,9.826755065472739
1.1063195608269196,0.06206604978859446,-0.12567690736576734,9.840544768321921
1.0981619038059214,0.06849623743117468,-0.13904855161006602,9.843012810489853
1.12613607805764,0.06128182271721648,-0.11826204646800187,9.83165666440132
1.1182939706541966,0.07468047434971839,-0.13398051594424493,9.828474513749905
1.145958510299085,0.060358661309085404,-0.12207197227549368,9.833904239087177
1.1384203656476253,0.06886207984108586,-0.1301948082460592,9.85103756588197
1.1657863672929105,0.0750774054947434,-0.13108316088430977,9.8248630083356
1.1585414753583614,0.06575413286051926,-0.1300883891757838,9.842311523177909
1.1856194520834311,0.06588089259107334,-0.1371359828030218,9.838706277083933
1.1786573710898403,0.05724062720120969,-0.12258895788251585,9.833885767185336
1.2054574782155982,0.07430061982250907,-0.12932223151966815,9.840008068711276
1.1987685325992896,0.05797797858631481,-0.12504963587707443,9.840471975831468
1.2253001515554651,0.0680639557593526,-0.13517089758299874,9.849247500736517
1.2188750813453875,0.06529747451773944,-0.12750151384594302,9.828022868797953
1.2451474613938194,0.06112278315076073,-0.11690906961436795,9.838562251868813
1.2389772210087293,0.0724760463851471,-0.1445287563959604,9.838209310302606
1.264998940248353,0.0777670899394588,-0.1369283303084977,9.836119602498826
1.25907523984398,0.06501266101351955,-0.1320260718518603,9.842636574246761
1.284854429279756,0.07660403426497715,-0.13795296258171866,9.838443799179649
1.2791692960036694,0.0741375905108816,-0.12397736258673901,9.853389535367182
1.3047138596767127,0.0614590146521146,-0.13475735865372268,9.835638241143652
1.2992596565351235,0.04989984259479275,-0.13608198110188488,9.838677097754452
1.3245770368541794,0.057794610531777105,-0.12252162007771927,9.84022417592658
1.3193463143524362,0.0637417985732048,-0.12801869586840392,9.83780146371764
1.3444436090510772,0.06918745331262151,-0.12542238304050637,9.83439749314302
1.3394294982527983,0.06773235481744298,-0.13583988053505439,9.832238083648095
1.3643136715461042,0.06573259373572855,-0.12240630129836882,9.843768351617257
1.3595094628057374,0.0691687037491512,-0.13419797025135166,9.835654036938893
1.3841868195209435,0.06060364473167248,-0.12426131668381091,9.838493070346976
1.3795862978174984,0.05374099603584618,-0.13129427339985464,9.837609197023692
1.4040630823004083,0.07061273957498042,-0.12700674200137368,9.835246998812051
1.3996599950446054,0.07082458684318184,-0.12967597188818436,9.83151956319243
1.4239422584821742,0.07203295763990412,-0.12631470246354956,9.846799646312192
1.4197310048985259,0.06437312729343374,-0.1278432133982003,9.845191875361335
1.44382439597737,0.05881415139847491,-0.1199214296140821,9.831118098805824
1.4397991628391356,0.05852693978055096,-0.12321919743402229,9.83222205164894
1.463709105989677,0.06512125695711193,-0.11906380173007913,9.846750221451863
1.4598646569928484,0.07004825804184338,-0.1195216860059558,9.835112383466983
1.4835964530853452,0.06539497036432056,-0.12825409682593855,9.83827861260144
1.4799275617744236,0.06373169762505775,-0.1276598955942434,9.842061854577283
1.5034861736544307,0.056267534584288036,-0.12169398386915921,9.854080720791957
1.4999881325620696,0.0738882464451425,-0.1292507299157266,9.839421683778415
1.5233785042043135,0.055916659576625116,-0.12578529604726046,9.836726725638856
1.5200462675354236,0.07082024942872024,-0.12989478237431312,9.844021634169653
1.5432729994651937,0.08187616555488511,-0.12812904958486462,9.843514823831491
1.5401021637013612,0.0580836837366733,-0.1339677225040076,9.840443744011303
1.5631697350721963,0.06608599977605883,-0.1306470806307211,9.8378937065761
1.5601560153361194,0.06706051172056897,-0.13795048101580518,9.838272845560633
1.5830685527722301,0.06506762810298541,-0.13315425764896432,9.836037286994824
1.5802076107149408,0.07146627921649445,-0.12853817085343994,9.838030775131863
1.6029694468042088,0.0666930447701017,-0.12600763267276036,9.843949091074418
1.6002573275406369,0.07304993031549649,-0.12742287734499017,9.838013615539747
1.622872333759238,0.06339641069887783,-0.12360312911486673,9.844722703065123
1.6203050657773514,0.07238818004267521,-0.12763228634535514,9.838495951808056
1.642776985890122,0.07102835617194916,-0.12852061926272887,9.835115210022552
1.640350961527269,0.07654394390217814,-0.13640793241427468,9.842255566206802
1.6626836672847036,0.06945551774498479,-0.1433290171335423,9.836044787900644
1.6603950173186885,0.05792786831195904,-0.13807153312473222,9.833749371658692
1.6825919625646983,0.07128556304068365,-0.13353982912192205,9.833986489393164
1.6804374098314967,0.06560828712616036,-0.12590945893071426,9.826051985401545
1.7025020401666127,0.054798415106729365,-0.12438099841408402,9.839088043507815
1.700478124563759,0.07119628999492932,-0.13351544156046058,9.852737590601908
1.7224136740104954,0.06277911577243289,-0.13788203369165938,9.840746027885574
1.7205171999306317,0.07617943629195731,-0.13050417162864664,9.834411167301406
1.7423268978568105,0.07486082619584579,-0.11551892848126559,9.841941155605763
1.7405546974203483,0.06838420794035788,-0.13424233165241994,9.848402597507734
1.7622417897065805,0.06992071213652883,-0.1264943493215864,9.844323175061067
1.7605907423858775,0.07557637144439923,-0.12862854527751816,9.832442594506574
1.78215783941918,0.07291320558326894,-0.14681121485322318,9.843705996854661
1.7806253403763503,0.06677556266445912,-0.1324041304531474,9.837990461587381
1.802075600590637,0.05861410201071735,-0.1223906685863481,9.837982309980456
1.800658498012658,0.05707590329751237,-0.12542817220867647,9.839225218153615
1.8219946176022357,0.06027005532569363,-0.12415147994172579,9.833029401739566
1.8206903986591891,0.06462622354577642,-0.13427463459212433,9.83885886175021
1.8419150809696776,0.06223756317633579,-0.11866964997913025,9.844344592121557
1.840720941784197,0.07388422060073313,-0.13464840687814933,9.836471637409767
1.8618367101621902,0.07116436702282851,-0.13533667330966773,9.838918712479842
1.8607501694424888,0.05951682028906641,-0.14107689195471318,9.838095615183729
1.8817596601091142,0.068962298085802,-0.13616039279908587,9.831401111000085
1.8807781158681958,0.0744957182362075,-0.12333998791291001,9.839613292302907
1.9016837167604546,0.06915503087730886,-0.1319826916345383,9.849230085564695
1.900804895385775,0.062052400796241004,-0.11889191232895699,9.832751582183073
1.9216090411472222,0.06142788597939875,-0.13706947830955207,9.841373112565575
1.920830634070175,0.06460939736460955,-0.1252167272654972,9.843206935307087
1.9415354554367603,0.06095083916569487,-0.12667325950261613,9.831589475994894
1.9408550895407854,0.055705541570801584,-0.12211472435974677,9.840437618056725
1.9614629788605777,0.07289825303761413,-0.13475510349185912,9.848743162753022
1.960878622238042,0.062322118619012865,-0.12256219814917216,9.844262939159726
1.9813916319363556,0.07555008041488122,-0.1456789467194126,9.835304081568372
1.980901083642325,0.08025467074709199,-0.13005755770853733,9.849114979230539
2.001321274635333,0.06250391894204455,-0.11993078112181835,9.838166298802081
2.0009223999670875,0.07762517314806126,-0.1259872042775591,9.847227763591778
2.0212518356258236,0.06303641465526892,-0.1207455414479167,9.840812675819882
2.0209428192111263,0.052057010025354566,-0.1297413057487404,9.84959810277141
2.041183494475915,0.07450787488564738,-0.1307507712990778,9.829252525642236
2.0409622709497026,0.061327717838007084,-0.128540940247328,9.836554798726548
2.061116121986632,0.060831282977607384,-0.14750664987439802,9.841839506514576
2.060980746538617,0.07295942544183508,-0.12932500902427368,9.826311103608242
2.0810495007509338,0.07181589261781236,-0.13085722342963882,9.836025833764928
2.080998363272811,0.06177129699835653,-0.13184497524675892,9.841628466048386
2.1009838321531866,0.06525849457369853,-0.14364555206728188,9.839354607848817
2.101015086183695,0.06765588300891137,-0.11453855690928696,9.839804205489918
2.120919184496169,0.0736375409967947,-0.13368706523134058,9.84357330473334
2.121030946783287,0.053955743202114506,-0.1297488041173715,9.83249826196066
2.1408552076114558,0.07930285728593678,-0.13261328798642452,9.838986031605305
2.1410459454949526,0.07150128961570816,-0.1271359369535136,9.835451876842942
2.1607921302574566,0.06685434869459975,-0.1268175481403461,9.836789703187875
2.161060179010763,0.06469127849891743,-0.137062458056494,9.829940942469591
2.180729849066007,0.06907905825417389,-0.12790956045574356,9.845479451233404
2.181073628134038,0.06986424201713082,-0.1235060130181536,9.83442482265363
2.2006683535217055,0.06640795605254678,-0.13045665256143188,9.841743592770882
2.2010862607412505,0.07334190315503325,-0.1304180446095145,9.841865537806116
2.220607547348605,0.07044402215335704,-0.14216398900727734,9.83262871447765
2.2210981730659607,0.05633764715812139,-0.12454698081637826,9.831951663618613
2.240547544610649,0.06408021223330844,-0.1403737832164839,9.834342221925878
2.2411093567085394,0.07586521715495363,-0.13436336775875163,9.850080622631967
2.2604882096607426,0.06718810107948937,-0.1302124805084171,9.83583964243727
2.26111984718756,0.059442940557938834,-0.14865938188264355,9.835544860516968
2.280429625652284,0.06712304644144274,-0.13087276682897242,9.83934709369116
2.2811296075962235,0.06065341289199908,-0.12869388985138736,9.836166879288422
2.300371621411376,0.06981643276167274,-0.12919816947058824,9.84327513793251
2.301138724899513,0.07876740670117369,-0.12918067266825572,9.834091134500547
2.320314487253488,0.06812410342615222,-0.13623917015030648,9.840130029678017
2.3211471610167496,0.07739405504746733,-0.12768113886595103,9.833130051350944
2.340257817314315,0.08631118931106994,-0.12642575852910423,9.82967490816401
2.3411549928746545,0.06370130303682724,-0.1332541446914829,9.838616100734258
2.3602018750172586,0.06511699907269392,-0.13284576392195718,9.849723433733534
2.3611621460001846,0.06135154587305927,-0.12527110977720537,9.828480775890162
2.380146446796356,0.07046314233265037,-0.12644300743024284,9.837930758822802
2.3811687236900303,0.062510131385357,-0.12703839544627982,9.841751946042686
2.4000916325642643,0.07120128176084863,-0.13161553140136564,9.833526560220548
2.401174761614529,0.05280082668224299,-0.12411902085990727,9.835222805453451
2.420037565513499,0.07148438522404418,-0.13242936590716192,9.84625687204097
2.4211802171198213,0.0720512816905813,-0.12550168670655565,9.837170941879034
2.43998391130053,0.07726873411946232,-0.12802672085677103,9.833866083035858
2.4411850721636936,0.07209644470879649,-0.137315670190092,9.83810872687093
2.459930930963603,0.06731227446010617,-0.12105446184825384,9.831774859402117
2.461189374049897,0.06821661479077856,-0.1463802140358774,9.83719485989574
2.479878353306312,0.06552212979784709,-0.12297040542955119,9.836352613125397
2.4811931099282085,0.06778640588082926,-0.13250904439790934,9.838077031280962
2.4998263858317076,0.058929296396656415,-0.13270651832819758,9.836982980521128
2.5011962688474556,0.05851396812632422,-0.13892071553466573,9.834914656229465
2.519774833345708,0.0709292130823569,-0.13202061611653365,9.836602618967575
2.5211990621405644,0.0646252654116135,-0.1368803644700529,9.843789959477322
2.539723961460175,0.0583359383224884,-0.12268299535174979,9.837697748549886
2.5412013181920585,0.07566685006416188,-0.12794830934081677,9.829753800896688
2.559673512367199,0.08361126629482236,-0.1292698089878437,9.844338422239666
2.5612030388991496,0.07623457793888554,-0.12950721054384662,9.84149349306688
2.579623492796772,0.07827041810321185,-0.1351499227987203,9.830981175147059
2.5812041831752404,0.06081855963013013,-0.12924548276068853,9.842967031180851
2.5995739586862543,0.06691188790955632,-0.12510758766099025,9.839230216720035
2.601204972272561,0.0781823620710121,-0.12846043612066416,9.84611782071255
2.619524990849673,0.0653569151142624,-0.1330496115733226,9.828089231254813
2.6212053381857388,0.06544144155839147,-0.12891793599943252,9.829883199082653
2.639476379518289,0.07093745683582561,-0.1337404619802254,9.835962026683463
2.641205167295529,0.07367017593660993,-0.11799776989502461,9.842499210650418
2.659428213424442,0.05877379780962088,-0.13953806154319429,9.83010341266927
2.661204674175824,0.060046446668429246,-0.13287566611515764,9.837265351026621
2.679380584198265,0.07508243843958909,-0.14234013108229748,9.846647661544464
2.6812035929326195,0.06770187444578893,-0.12808864382142238,9.8347814501836
2.6993333139588374,0.06676337923384272,-0.14168035399048357,9.843114776529683
2.7012022341593065,0.07699667224455296,-0.13136441284600162,9.838713115989336
2.719286440290835,0.0649629301464918,-0.13805154017234264,9.835859310190793
2.721200352794218,0.06134227694325739,-0.13276401823789896,9.837592871826907
2.739240004838732,0.06650242657861502,-0.12300025603436332,9.83971377520185
2.7411981752854158,0.05762374948274545,-0.13776506468626992,9.846829458488402
2.759193980218013,0.06150505027095573,-0.1350101596356938,9.838101965199595
2.7611955857220276,0.08217302006509046,-0.13765845106295238,9.83823784968061
2.7791483278682483,0.07081665080305143,-0.14077505264126142,9.848676732562838
2.7811925105304782,0.06310187911655255,-0.12550993425701976,9.836784781277679
2.799103028762184,0.06600702899855934,-0.13722429885664142,9.84696047083663
2.801189073876256,0.07148759253703478,-0.12927507226218973,9.834445564552041
2.8190581115092948,0.057483746805932025,-0.12582831470451014,9.839542105144245
2.821185304628879,0.06507095542845681,-0.12951096569914192,9.842158144758278
2.8390135819687234,0.061127831135237204,-0.12637811820994901,9.844758985852401
2.8411810657283882,0.07361860132949628,-0.12721159265524737,9.831699021611591
2.858969351175866,0.05208984504845263,-0.1339299935468885,9.841834069366191
2.861176621120621,0.07454192002300677,-0.1350460156505905,9.83010413234157
2.8789255146415758,0.0775750782294578,-0.125401351034442,9.840427498294932
2.8811717439362035,0.06236170156222622,-0.13401192550308308,9.842659341465987
2.8988820833663995,0.06185782437874012,-0.14023854343324857,9.823232353554992
2.9011665975607293,0.06764414920797124,-0.13771881074777437,9.832167263618958
2.918838821774768,0.07428343281364877,-0.12809832612625327,9.836479227683121
2.921161027177328,0.0715806889325389,-0.12336303982159935,9.832403670384844
2.938796008452273,0.06068171825756656,-0.12207505665054791,9.825726412030887
2.9411551293267046,0.06325548287477847,-0.12779582840319847,9.83725011900033
2.9587536809057173,0.05959761861870373,-0.1327075222888017,9.834472738657617
2.9611489937961903,0.06328209073662759,-0.12733263766342304,9.835925390979563
2.978711532760439,0.07193883393756577,-0.1313836387609135,9.83473839233123
2.981142497595445,0.061562851552424046,-0.1359987718926551,9.832263913915211
2.998669583324795,0.07795928639736034,-0.1318275651273458,9.828773153070026
3.001135651095519,0.0668243366402759,-0.12710957551672697,9.829941772983979
3.0186281689962846,0.0670738579683767,-0.13130904821057374,9.834040990857355
3.0211286143048093,0.06614655802752105,-0.13007816839218558,9.831373964283644
3.038586987239684,0.07086259747037356,-0.12756148388096558,9.83901273215818
3.041121148138989,0.06961871751792045,-0.12483033241255431,9.838239698747422
3.058545985028671,0.06382911061992681,-0.1292303096795223,9.833471527313225
3.061113482739606,0.07429402619456973,-0.1418456313963329,9.84189830766603
3.0785052931239476,0.07139170340068611,-0.13642429974991818,9.838361518866547
3.0811054054618188,0.07713018284522673,-0.1405903483476292,9.832863918135883
3.0984649997190568,0.07578324227372223,-0.14565529458517562,9.829253607385446
3.10109717159542,0.056272508499416285,-0.1367812674409142,9.836288677641885
3.1184249458652253,0.06709451560791645,-0.13136818780256657,9.826438060594988
3.1210885608020877,0.06548433591678246,-0.14602674738822516,9.837002273118635
3.1383851534618827,0.06769765865431979,-0.1253553971962147,9.841693866663652
3.1410797593191746,0.07416037761080788,-0.12285952640069908,9.827291131925845
3.158345654474842,0.05604744456015929,-0.1226401570263614,9.83452252007651
3.1610706002141837,0.060704100687404186,-0.13141033334807165,9.847178327863022
3.1783064136223556,0.05963640438774646,-0.12013876707470153,9.837740425974028
3.181061176151685,0.07454570798425754,-0.14171613043687992,9.832074897228813
3.1982673822876633,0.06629668866826341,-0.14233774862555443,9.834291297947114
3.2010514659638756,0.05516123049608695,-0.13916274811602836,9.842364475810577
3.2182286234402455,0.05595900866460824,-0.143502910304246,9.833141137517648
3.2210416322088844,0.06365532555240676,-0.13088317943125952,9.841066717997437
3.2381902266274074,0.05940374108686728,-0.13295759810337443,9.844715628613823
3.2410314197318595,0.061343408064667794,-0.13758123220624938,9.83124335102326
3.2581519454593786,0.05767442118945942,-0.13021014182401433,9.82399964874516
3.2610209613100984,0.051471845104348574,-0.12803850024309768,9.846725726454665
3.2781140434408504,0.07132793979804218,-0.12410600329535354,9.84400925914125
3.281010337870693,0.07115467542684145,-0.13087208532504416,9.839507432558039
3.298076359205059,0.06723655259961812,-0.13574198214399477,9.83318644494526
3.30099942765485,0.07515033867741402,-0.13191160474664243,9.833877750602667
3.3180388701420456,0.05816254195178196,-0.12873380808925336,9.842697450433526
3.32098825887324,0.06979668768466299,-0.14050091505294893,9.836307536452065
3.3380015838191204,0.05973847460223391,-0.14580820736831443,9.837757706836626
3.3409768570845513,0.06451084368258946,-0.1299458495078018,9.830312066796894
3.357964523169701,0.06997268197902248,-0.12036950935537775,9.835249617982795
3.360965270283357,0.0582650495408817,-0.12069220568506052,9.830674062131354
3.377927912759982,0.058232281194754106,-0.13205294864702888,9.8374564265637
3.3809533731791332,0.07090906781183255,-0.12314988729332264,9.84534953418265
3.3978911480177536,0.062335124977961176,-0.12623928055475803,9.825797829148163
3.400941223696133,0.0741159743030797,-0.14129854395311953,9.832098561201228
3.4178549084153844,0.058378110330461794,-0.12512734014417531,9.829357910379892
3.420928963054573,0.06302667125795082,-0.13038039371461224,9.835397153631755
3.4378187097807813,0.06659201834113625,-0.11960842017230598,9.836605009075134
3.440916507806037,0.06882235510546614,-0.13139288322808518,9.829540378037892
3.457782835233429,0.07155470139155519,-0.13969028829460112,9.839471557044307
3.460903808939467,0.07614789203722011,-0.13851293348236865,9.832752170735418
3.47774719444396,0.05824006844045911,-0.13317748509914928,9.838490887640948
3.4808907360929076,0.04725481150544865,-0.1248059550706446,9.839641408501496
3.4977116196877844,0.07031837432922133,-0.14085086678055267,9.843144798392592
3.500877702444898,0.05325707249962901,-0.14433110900988394,9.847654352852645
3.51767640926475,0.06061033490124062,-0.12471185662798989,9.840314838894486
3.52086429140984,0.059646328847953116,-0.12467929008884301,9.842176619500206
3.5376412311842995,0.07371146440929682,-0.12753313738035352,9.83822649385833
3.540850733400721,0.047820870096065796,-0.12601896510082608,9.830639303786235
3.5576064205080264,0.07356462249473969,-0.12664075600861105,9.835318434200206
3.5608370594957597,0.07446855426379113,-0.12415069822931213,9.837674036760845
3.5775717531949556,0.06341715683285587,-0.12927027200540456,9.837005159508983
3.580823049881258,0.06822197458736107,-0.12123181711279758,9.834963010746016
3.597537348063643,0.0596803778346228,-0.1401479626077958,9.837118225163946
3.6008089829463095,0.05527333335232415,-0.12420400334718669,9.832970489933894
3.617503071344329,0.07397467026576471,-0.13752821688950578,9.83279761243814
3.6207946382130274,0.0724510284863854,-0.12417437336769764,9.840018386953286
3.637468940954389,0.05714541219336173,-0.13152899670028761,9.842009305997202
3.6407801182838573,0.06989119935045475,-0.1414868905975317,9.831710382533542
3.657434966583765,0.05665427290952365,-0.13836068910485166,9.834967740853166
3.6607654167857038,0.06560707356533323,-0.13660521874725765,9.838956993385967
3.6774012778875527,0.06148738624514799,-0.1303497463489662,9.84224619290766
3.6807503552332093,0.05996155143563944,-0.13485493156128844,9.837166736657428
3.6973677368019757,0.06418588319659359,-0.13466894804754173,9.848202108416297
3.7007353809137333,0.06468435494538857,-0.13048221386906791,9.84363417560306
3.7173343519856052,0.06151430864930649,-0.1346446922735677,9.836583379446262
3.7207201446658136,0.07863608414127467,-0.1292384020150205,9.8447275784819
3.7373011410612014,0.08074152913429385,-0.13358209671118013,9.840368165527577
3.740704647197473,0.06840127039566254,-0.13221396800443638,9.840477923203705
3.757268177288976,0.06539481688563788,-0.13410175060132795,9.826952033589308
3.7606890467672036,0.06820929951010743,-0.13868358773613224,9.835444141816309
3.7772353865039108,0.06922084663989368,-0.12135061143770871,9.83816291954334
3.7806732232834377,0.06260323626824602,-0.12494185836375005,9.832425747309522
3.7972027763857623,0.05992040417344135,-0.1378309678780369,9.836307974539963
3.800657328641062,0.06804173411380726,-0.13832097391067438,9.842451220496779
3.8171701875836406,0.07890321849198087,-0.13286359501756026,9.830599518068643
3.820641135893051,0.06715886943194958,-0.1411426091757401,9.843444996373504
3.8371379534439884,0.05961268172365137,-0.1312962718481376,9.83027305614775
3.8406248822452027,0.06198810035546998,-0.12659141690500583,9.837424197166797
3.857105771166662,0.062158887718309776,-0.13108599567169626,9.826395651274401
3.8606083474048547,0.06469980289311814,-0.13493563132402475,9.83509648222446
3.8770738904176993,0.0833290798123439,-0.13146329054190045,9.8423492117302
3.8805917528959233,0.07107380406730493,-0.11543345834587616,9.830900800971378
3.8970420152571412,0.07098650341972979,-0.1264973043914432,9.834512112890627
3.9005749824925524,0.06522885181162057,-0.12695115393694062,9.831861741434691
3.917010359284836,0.06881156040252324,-0.14153246567972855,9.842932171794569
3.920558031099449,0.05724434193756404,-0.1372047878199474,9.82877964105912
3.9369789128824455,0.0697937693783184,-0.1251165360910799,9.82405801671563
3.940540847842306,0.07078405320217383,-0.13602992070715839,9.831015111891796
3.956947551890185,0.06803417097537545,-0.13392067143227118,9.831748564271852
3.960523599410326,0.07313710476466356,-0.12461041887372655,9.83300626965465
3.976916439700184,0.05854464906119836,-0.12996299512200493,9.84827758439659
3.9805062282098578,0.07609179242962807,-0.13553096844920592,9.838349746737581
3.996885314734788,0.06590511728006282,-0.12410955720715873,9.833572131726157
4.000488609892652,0.06215897844907114,-0.13546427507498274,9.828691960591708
4.016854404659514,0.07165339832729656,-0.1341805696295644,9.82812499261856
4.020470859871393,0.06282535192985313,-0.13701949712663433,9.83516824497777
4.036823678211575,0.06092904710978726,-0.12434497223963661,9.833742013648054
4.040452913525595,0.06554709200024353,-0.1285514905359255,9.835302375027416
4.056793095479459,0.06283136968037889,-0.12198494230232398,9.831361469287021
4.06043489912475,0.08483129958938937,-0.13196611517730347,9.848011835488897
4.076762825092447,0.06232801702196107,-0.12940341013281242,9.822900565904666
4.0804167204629325,0.06402083661903459,-0.14207959479343338,9.840250140489827
4.096732430493902,0.06910582517092156,-0.13671290026515442,9.839281385013516
4.10039837871346,0.058202228297737406,-0.13273207342416932,9.830017804779512
4.1167023790379185,0.06818659633970456,-0.12715209669179653,9.831943767337034
4.120379904084248,0.06443580716658101,-0.13044214538927254,9.832325005402922
4.1366723633181195,0.04923286555458967,-0.143422555990298,9.829344649951228
4.140361286209857,0.08343916329117278,-0.12772871405682742,9.83321243057774
4.156642525129715,0.06451995240011854,-0.13800012833792175,9.841920630396201
4.160342509447071,0.057038660696096685,-0.1411973421904701,9.835983446467008
4.176612769506023,0.06103697548473542,-0.1325926436071872,9.837175404210132
4.180323577097406,0.07490238030553917,-0.13328142826458056,9.831232946779647
4.196583328700883,0.0807839025952398,-0.13468201802387347,9.853431288200925
4.200304621547147,0.07531716009014931,-0.13534237954027983,9.834998554705063
4.2165539630607265,0.0528202961436138,-0.13307650763105985,9.836872294951545
4.2202853949656705,0.049806508363879926,-0.1339916058062354,9.834655192263508
4.236524662283834,0.054498423533672694,-0.13811925913041748,9.84045630063556
4.240266053332362,0.06272744498587894,-0.12705975606309783,9.830829465465225
4.256495589634305,0.0664517783589873,-0.12649844836481583,9.830255564033012
4.260246656000672,0.07334745467498194,-0.13081999944606285,9.832813848435674
4.276466595465077,0.07102489454912109,-0.12067474195705674,9.834340815185476
4.280227028990484,0.05838303189218259,-0.1318120131254526,9.83162726937158
4.29643770358433,0.06348174938153638,-0.13226953674191075,9.8439165254822
4.300207227474997,0.05896671105738229,-0.13163040616899851,9.832350848931716
4.316408877276627,0.06528567183876924,-0.13234332497860396,9.82951336092846
4.320187327551683,0.0701991940929774,-0.13301441337720082,9.837564196459052
4.336380386733762,0.07625631234006518,-0.14119633534920648,9.826802140424807
4.3401673364116915,0.06481514526211235,-0.13746506199287598,9.829192921625895
4.356351906763058,0.060427334433261565,-0.13201596955413059,9.833276143473007
4.3601471593743755,0.06767917001471081,-0.12307647222468349,9.823528351951298
4.3763235272326355,0.0665930308652464,-0.12858903723085302,9.836761581070858
4.3801268734008545,0.061210947698447336,-0.13431064402113446,9.83083399803758
4.396295267144927,0.058918967624928584,-0.13105989034796978,9.839985738812924
4.4001064220989194,0.05649076357272333,-0.14215058648620163,9.82694026954109
4.416267259455727,0.06867343992144216,-0.14220044504708926,9.849379456296182
4.420085910268839,0.06989889518676538,-0.13885319531334117,9.83045920923133
4.436239310670106,0.07359217659474013,-0.12840292782503007,9.823109866451773
4.4400651772430635,0.05677371425310629,-0.14205663629106036,9.829654879044016
4.456211586610071,0.07155859763612284,-0.1387525627521872,9.830095512280725
4.460044462039454,0.057827868243217374,-0.11714641461410845,9.827001509680258
4.4761839634374585,0.054643847956744325,-0.13575740237375006,9.82964362872566
4.480023490988268,0.0695180739468395,-0.12526226429689244,9.836119938128569
4.4961563515839424,0.07293973766074756,-0.127268826638925,9.82623944947188
4.500002381158095,0.07308503404176239,-0.1344712309657385,9.83371999461435
4.516128889436768,0.07042464276948589,-0.14282602039334744,9.837300829891484
4.5199812208344525,0.07805853387362065,-0.12177367936350782,9.829819956255939
4.536101659592465,0.07246795865867427,-0.13431383226195837,9.834723321301393
4.53995990859636,0.06664674180251874,-0.13147351430746262,9.83383900403465
4.556074481044537,0.06770981917500489,-0.1275733055303115,9.837427240327095
4.559938421345873,0.07776800405345931,-0.13243180802560586,9.831171833015736
4.576047484972049,0.0658378817895944,-0.13135716952896836,9.826617953672676
4.5799168863560045,0.06626203093891285,-0.13442882922575414,9.838338451415668
4.596020456881321,0.05919924920893741,-0.1340760873589199,9.846986527896174
4.599895173645312,0.0647113328758583,-0.13695877474836707,9.832186857173193
4.615993852491785,0.06451829829109787,-0.13495811296589633,9.83389173225993
4.619873385425446,0.07126357835978579,-0.1267327625735803,9.837974193202403
4.635967140206189,0.06278065957710718,-0.13747801070779062,9.843347261104801
4.639851407629733,0.06442427490897117,-0.12864971546908974,9.823175098277499
4.655940518615994,0.060880000497757936,-0.12680226323486357,9.833090573696184
4.659829291433737,0.06936267277976096,-0.13932430995418957,9.838639814975844
4.675914148895095,0.07270403599273743,-0.13218207207611668,9.838669335431483
4.67980715476885,0.0800837960417257,-0.131986490261708,9.829434774111622
4.695887749400311,0.073994244668063,-0.13228700057806955,9.841837871962657
4.699784784944642,0.0763309405034096,-0.13843651668251458,9.84116192403491
4.715861698790904,0.061073080340721106,-0.12286550011751605,9.828220752108944
4.719762340801737,0.07713060283143854,-0.13014534463199642,9.832198220923589
4.735835696123138,0.06147961425875471,-0.1273729240073836,9.828554098318579
4.739739858163259,0.07030364251482385,-0.1275664654167823,9.838343856009708
4.755809712392686,0.0819194747851534,-0.12992466621797913,9.828644265448585
4.759717139598479,0.06120318759337056,-0.12308480538817539,9.829371278229344
4.775783875530888,0.05694524302629162,-0.1440154302142042,9.833366212816202
4.7796943224078605,0.06610750191600652,-0.13935464100869813,9.831752860358458
4.7957582229298135,0.06865658466545804,-0.1323644925116385,9.835521486720179
4.799671418832668,0.06817281640406474,-0.14385220193342924,9.84240386294115
4.815732762415043,0.06762746263138211,-0.13965740599418966,9.840162846921455
4.819648420821099,0.07432412610731111,-0.13867980068051228,9.831622024758992
4.835707135056429,0.06442998763136218,-0.13855577710291075,9.842672006096397
4.839625184721239,0.0676198730045785,-0.12584833979028182,9.835819634662894
4.855681859869807,0.06300923978038775,-0.11741700030314035,9.8347532123829
4.859601971850812,0.06612088773248755,-0.12505421667113215,9.83759620426448
4.875656662258287,0.06744405102749824,-0.12420336223214022,9.842872439135581
4.87957852369369,0.052155155518257904,-0.13221280322631895,9.824416430828224
4.895631608872772,0.06882549619268197,-0.13425252634134568,9.82708634833871
4.8995549626880734,0.0671456196376769,-0.13757051807328236,9.842557011060304
4.915606653937899,0.07158233499064343,-0.128914869705352,9.846246881305682
4.91953133235117,0.06850086967867364,-0.12364910963612222,9.834563733156154
4.935581857210387,0.06743282447420484,-0.13756141516355247,9.832209611556255
4.939507587065257,0.06070911330321738,-0.12675875740217238,9.842250600555904
4.955557102599817,0.07013929635945128,-0.12319347615533585,9.838754981931876
4.959483639804913,0.07043224927315163,-0.11740521045570795,9.826783881955748
4.975532473814113,0.07586424941013778,-0.13689392149341084,9.830757306779082
4.979459664692117,0.07316606897425498,-0.11649273434722944,9.84234875106438
4.995507966257711,0.0760400314703649,-0.1367320905488265,9.831798411998895
4.99943548142344,0.06185694312351474,-0.13203397618112525,9.835802699846663
5.015483569648367,0.06389022097971885,-0.1286367694345408,9.846328894575356
5.019411176537816,0.06972133719651158,-0.14046377719278352,9.833453025520773
5.035459372747967,0.0702527315419196,-0.12978180267107534,9.83654239128282
5.039386923239316,0.05517913705981246,-0.13612404994306881,9.84100868829097
5.055435207262881,0.06232644707801006,-0.1311886141145093,9.830580350669084
5.059362356978986,0.0715909515548024,-0.12885060304968818,9.834409521952928
5.075411218011842,0.06532539755437815,-0.13076837297586424,9.83096341976416
5.079337765166472,0.06370987756097132,-0.13093318408587537,9.831098889535273
5.095387360129423,0.07138501313959308,-0.134588686239579,9.837520180308273
5.099313037390114,0.04644242960752448,-0.1347366023383851,9.829762620403944
5.115363579099876,0.06166528197877424,-0.12764242204731321,9.827830626256254
5.119288134802832,0.07151781192439788,-0.13791381484366,9.840722085008048
5.1353399097498675,0.06392608795572104,-0.12985393507204884,9.831511590434108
5.139263197402167,0.057269712035042296,-0.1352061015615432,9.835048165377682
5.155316397049854,0.0606053542627313,-0.12586899974921695,9.829123535019715
5.159238089122342,0.06431405501123863,-0.1406634156596769,9.828841275610662
5.175292900939987,0.077735535735975,-0.13395912573899735,9.830791894802621
5.179212999914388,0.07255711457701788,-0.1311384861276727,9.829646715011652
5.19526966077016,0.06853042838435847,-0.13944763777580663,9.833586777864227
5.199187622502662,0.07292045385708398,-0.1315099556141099,9.829979079208048
5.215246517535273,0.06447464056807761,-0.12494455565463072,9.837577856153935
5.219162142773773,0.08266386985090432,-0.12800502588270993,9.844681691909404
5.235223414355768,0.08262806928921947,-0.12882707915730301,9.836932071788729
5.239136546389379,0.06886556795155609,-0.12332730297886864,9.829848639269175
5.2552004855743855,0.062011905878210934,-0.11597898979745028,9.832952146563114
5.259110832221727,0.0689344145074272,-0.13235587705407792,9.84409062925737
5.275177701752764,0.06556732939200098,-0.12243797697345968,9.836826393249156
5.279085050304257,0.07322886272705686,-0.11884112117885542,9.833865297771384
5.29515490494707,0.05769241348068174,-0.12986710038991142,9.833356047128028
5.299059100282964,0.07320642002608096,-0.14283507380212054,9.832143332368542
5.31513241628403,0.06571060086744163,-0.13536796930401826,9.833259256511084
5.319033090759669,0.0660235306469802,-0.13320426963196544,9.839389292807557
5.335109893729648,0.07283137730567613,-0.13053444677255752,9.835686684269108
5.339006852434946,0.07471586903771904,-0.12925839434796665,9.839143777773776
5.355087556687466,0.06989849720155446,-0.11507875806084676,9.835245949851805
5.358980570387805,0.07122507703455441,-0.12252507232099344,9.829375061726928
5.3750653707901295,0.07229574578225305,-0.13379672082315092,9.834191099225713
5.378954195058954,0.07227144321582948,-0.13635497336759667,9.829264470708013
5.395043233985492,0.06622594325295857,-0.13219036051988836,9.834757614807883
5.398927557523057,0.07642614924827286,-0.1280461660709071,9.836716202148327
5.415021270265012,0.06616863186638619,-0.13339257857577638,9.835505753783863
5.418900873936969,0.06627339071312958,-0.1331124008372505,9.831716016384766
5.434999512271997,0.05623394391316494,-0.13159181010101478,9.829247697047647
5.438874079379616,0.06420848058968463,-0.12163373814843226,9.840791011006006
5.454977749152849,0.07034936383863373,-0.13295677733679478,9.843509418583363
5.458847230172411,0.060329175766217415,-0.13534149460136957,9.823270901215722
5.474956145435112,0.07270488439763828,-0.13078594282260594,9.846503105066192
5.478820105603766,0.0643965423687393,-0.13926053246541595,9.84122189279611
5.494934658744134,0.06546764845289348,-0.13565223846250393,9.83357256525181
5.4987929211811695,0.0670859948379948,-0.13579644175933428,9.831448374839947
5.514913349946802,0.07910535092591066,-0.13077474423473415,9.847619466751492
5.518765583377628,0.0705814675143418,-0.1306203925840207,9.832750164588125
5.534892206476938,0.06677381454617122,-0.1315366388128151,9.827898851657105
5.538738266590144,0.06886211726730898,-0.1288305941818721,9.833884179838133
5.554871079992925,0.06517096776147692,-0.14059053909532884,9.838905706415616
5.558710605688624,0.06063498066329187,-0.13742622994568715,9.833851453815193
5.57485013063406,0.07308005460491365,-0.14091075565116695,9.833864922488734
5.578683020466076,0.07157124536476511,-0.13921365692611765,9.829709619359482
5.594829356046809,0.0784700494836572,-0.1270367237876699,9.832846445620815
5.598655080592774,0.07261395377223544,-0.12297324194192111,9.826361516536828
5.614808568399964,0.07187735328898673,-0.13235870203952424,9.837432004405013
5.618627193663547,0.07259031093327419,-0.14008556285972187,9.82994873581438
5.634788026250831,0.062013622183256026,-0.11977813336741237,9.835297946598072
5.6385990965512365,0.07034528133298873,-0.1255712249997233,9.836519226477945
5.654767657246542,0.07190936937581058,-0.13734709278713972,9.842286746018459
5.658570944796189,0.06979878039409067,-0.1283463628105938,9.82990943810842
5.674747359721034,0.04592693132285753,-0.1324167653698657,9.835299462159416
5.678542625224629,0.06634320073170594,-0.13374513928875065,9.840746946119065
5.69472712732061,0.06987537517556415,-0.12244284758659238,9.847461786565887
5.698514164555963,0.05903238541435945,-0.13675807127649425,9.82318758496853
5.714707005301473,0.05270395690082991,-0.13651327708858563,9.82374387247797
5.718485538952105,0.057720686494694515,-0.12823229101829636,9.840740914894875
5.734687271302607,0.05745746145843115,-0.1274688296147499,9.833505936601949
5.738456827022875,0.0703621114421809,-0.13916982264672315,9.832992792398343
5.7546674463664145,0.067676475015001,-0.14431647183526927,9.835788873478787
5.758427910934257,0.06131651746359888,-0.12638234482200938,9.836950711175623
5.774647840275563,0.06376795878433615,-0.13143806085286636,9.8204931552617
5.7783989461286795,0.061740518619702374,-0.13127713154027792,9.830415143846668
5.794628377239865,0.06193695339411869,-0.12345635504822755,9.842378331589753
5.798369823002171,0.06688101069152867,-0.14111028120169902,9.834322890786769
5.814609045167621,0.06563577970296275,-0.12970278332906524,9.829436486747746
5.8183405319409545,0.061820683170217744,-0.12357386633827615,9.828509633618804
5.834589793616052,0.05908573837752941,-0.13064522934880174,9.835357653762745
5.8383110185959515,0.0724748429170273,-0.1273264247597738,9.840536953004
5.8545706544403755,0.06216422727120685,-0.13374542001280496,9.829199517958132
5.858281496156713,0.06878663763232344,-0.127383103866725,9.846382265615823
5.874551728376985,0.06265686746731798,-0.13419394388421965,9.8327709222619
5.878251673032019,0.059930333245818625,-0.1313553361155017,9.833396893077651
5.8945329771542765,0.06768043206727854,-0.1315069674613923,9.827475994599709
5.898221832856318,0.05974761560946074,-0.12426174084028163,9.843765254374938
5.914514306785641,0.07215203773595684,-0.13459826594400973,9.850013477426684
5.91819189136041,0.06629815469089272,-0.13993136268516695,9.837460495196689
5.934495820651427,0.0751680192598957,-0.12716593086820924,9.84063075428578
5.938161757795945,0.06678836139254572,-0.1295539459612151,9.837350810511532
5.954477482646288,0.06236661793991924,-0.11561013327981484,9.834850620895988
5.958131419872964,0.06258801553501457,-0.13300397953469942,9.838440046986921
5.974459179308195,0.0700197286779491,-0.13946719402001956,9.839701257924473
5.978100931109426,0.06322236306067489,-0.12238295924724876,9.840762769313669
5.994441027460039,0.06309809209411298,-0.1293581795211065,9.833464726809527
5.998070260936143,0.08176796368370433,-0.138579183449287,9.829324089537527
6.01442315066363,0.08281594919669859,-0.13370640560189073,9.844734373661952
6.0180396385150745,0.06627133691764865,-0.13280521572889697,9.820170582684337
6.034405396635643,0.06323294363236742,-0.14289652401165132,9.84626359713985
6.038008691265961,0.069453240917942,-0.12871179692253082,9.837479675833087
6.054387783041395,0.06868665391960949,-0.12660617551967288,9.827769213142735
6.057977610539317,0.06307418690796374,-0.11822897544223168,9.83982588531357
6.074370257381726,0.07287092155648249,-0.1377574605605417,9.82802231992064
6.077946424342811,0.07527407880573952,-0.1348450681098826,9.830618425756775
6.094353004477697,0.06233715717628978,-0.1369917384302333,9.84051720762769
6.097914992690812,0.07226136415032211,-0.13454372927053262,9.829812720791423
6.114335871838005,0.05924162655295014,-0.1310851945288301,9.828059874104785
6.117883457017879,0.0758109095431559,-0.12611704850396657,9.821709734452279
6.134318901872074,0.06955712900732833,-0.12750170156948257,9.829979643084707
6.137851803274431,0.06936914112893909,-0.11917499410956817,9.836828463750075
6.154302050170576,0.06631045484194968,-0.1360194059112467,9.849196031878906
6.1578199304743295,0.07261519911442067,-0.13739794127534005,9.832860067159864
6.174285463886352,0.06972819782925649,-0.13571021212963605,9.836025977726031
6.1777879910206055,0.0628391755905729,-0.1398860101905375,9.836525792624661
6.194268985244319,0.06787156222166854,-0.12634386318162097,9.83167899609661
6.1977557860612045,0.06225127482401849,-0.13208909788565495,9.832286266697215
6.214252535593069,0.07667429529170468,-0.12434783890281144,9.838415381058017
6.21772349567222,0.05413479909750671,-0.12886536378340513,9.82795100597684
6.234236462320858,0.06468041850872142,-0.13762875318116588,9.83597254765517
6.237691018151409,0.07509076490536683,-0.1354090700062612,9.838667209070891
6.25422043588517,0.06132805065030044,-0.13702973974576774,9.830632553552364
6.257658334288928,0.06917492833704586,-0.13404664613273173,9.831629054993101
6.274204580651522,0.0827329706455231,-0.13100921321903228,9.82561904143899
6.2776254843982375,0.06121026398441701,-0.1363234484513943,9.83534993474205
6.2941890523176,0.06505840351921333,-0.13266011961810814,9.841931017854384
6.297592454729717,0.07756308473296093,-0.1417173154300146,9.830266978095047
6.314173523660074,0.07824967187288728,-0.13982331750787091,9.821291008256262
6.3175592534420355,0.06907516099513168,-0.13336042387219116,9.831993447915789
6.334158201164889,0.07126667585327429,-0.13629762765372544,9.834532594209909
6.337525791327651,0.07241573956144196,-0.12387441497572478,9.836593739875568
6.354143112731044,0.06254088957664611,-0.12970279740514987,9.828099158371279
6.3574922037342505,0.06580378215989785,-0.1386465849299114,9.83765132163584
6.37412816188908,0.06564089494343324,-0.11981324813267337,9.839224632255824
6.377458447858521,0.07520088805716706,-0.11652881998265055,9.838279916653779
6.394113422539869,0.06318019141148336,-0.13665589361265038,9.834384930791613
6.3974245411225015,0.05668255497393675,-0.14251720649675712,9.844263004942043
6.414098861771337,0.06258612017548155,-0.13284129212469628,9.832927906084759
6.417390466441784,0.06834250033679293,-0.1323273388395783,9.833402875883726
6.434084520411094,0.07436385110255063,-0.123106740474375,9.841268560995474
6.437356134216651,0.0683655124158154,-0.12860655982938005,9.834043050837376
6.454070275297443,0.06376117258597622,-0.13211191141733047,9.831744174501885
6.457321673714187,0.07199980875677585,-0.13275915904294658,9.829296923546364
6.474056370655977,0.060556905875154804,-0.1312164436372029,9.837481133451693
6.477286893488047,0.06414823767042073,-0.1185751302536843,9.82558614999516
6.494042510141125,0.05799939449260636,-0.13293778653331306,9.830282152263647
6.497251968159328,0.06300222719901641,-0.12592052769743,9.840225793666859
6.514028949617429,0.06184095128481455,-0.12402762383952153,9.839376129436756
6.517216908365305,0.06881157766315359,-0.1366000132006536,9.827937736462326
6.534015523221619,0.06600922327724358,-0.12279036720742112,9.834920273124851
6.537181503607983,0.06200419462398045,-0.13585706112313786,9.839634048604687
6.554002341965788,0.06116821073140647,-0.14194769058071663,9.830831122176951
6.557145982366228,0.06717663933595218,-0.11940795196022418,9.838041469520496
6.573989397610627,0.05540873665253824,-0.12975806968036044,9.838988569242048
6.577110232031035,0.06317567166350649,-0.1375724836476454,9.838258462931956
6.593976662619754,0.07706256199285816,-0.12744202963479653,9.822236595963364
6.597074325213299,0.067996596424342,-0.1327526949755692,9.831207832192415
6.613964113925919,0.06791850461329944,-0.13519862424275708,9.838067937394598
6.617038162650852,0.06969807267656734,-0.12216272037461771,9.832930186735158
6.6339517273306585,0.07306051976817199,-0.1277675476460084,9.826607618063544
6.637001755189962,0.07083751588571942,-0.1370429209650091,9.834192471437122
6.653939667836145,0.06069500218350426,-0.12649748505027775,9.841813830552217
6.656965242186842,0.07301127676241687,-0.13909081867552908,9.831046415370384
6.673927760819388,0.07040693572312783,-0.12571796270926788,9.836180798908574
6.676928377311664,0.06114070168194677,-0.14228412748892713,9.830098831600573
6.6939160110213525,0.07377689069798056,-0.12629946183340898,9.84469584170751
6.696891329269309,0.07314199847515788,-0.1320959917972629,9.837773049505735
6.713904591596021,0.062098576858588994,-0.1329718521480994,9.83438422299718
6.716853961512785,0.06839712352942934,-0.12962400909118013,9.836396149571783
6.733893359470887,0.0670133746475839,-0.13416399688727962,9.833183339058762
6.736816324879186,0.07699328270233867,-0.12676825191085728,9.829317270584426
6.753882418814188,0.0630425713729998,-0.13300124385421766,9.847378380274058
6.756778628199472,0.06838659428995222,-0.13004529671470205,9.826986538564741
6.773871702655891,0.07503599747157015,-0.1275846098688769,9.837697032548704
6.776740636423449,0.07169371065529033,-0.13752558779121785,9.829252723490233
6.7938612416844455,0.07386971235882607,-0.13264815545629854,9.837529180126525
6.79670243128267,0.07187926452720193,-0.1303737124107771,9.833343488828989
6.813850971608556,0.0713013094548166,-0.13026713608146268,9.844970119478656
6.816663904808047,0.07349470409694889,-0.12432805783359162,9.834302232409097
6.833841162231722,0.06531511103950537,-0.13654749114351838,9.841678596404078
6.836625066570793,0.07172320115894414,-0.12554233828460687,9.831490160061245
6.853831268261814,0.07933553291741784,-0.12413435199348788,9.830708582815173
6.856586068133051,0.053494054967614994,-0.13470219641816392,9.842680874816937
6.873821925450931,0.07794382469405939,-0.12965070231989648,9.837830633664424
6.876546823820592,0.06720347505998205,-0.1404469108707612,9.839386742942969
6.893812722400808,0.073384214878551,-0.12938894420683084,9.826478242328319
6.896507234315776,0.056651564510490734,-0.12444321066450335,9.83959214524995
6.913803810429797,0.06858094599849045,-0.12967725030526817,9.827789767491613
6.916467359238053,0.0683987549198459,-0.1382983976998618,9.84787507216902
6.933795233826868,0.07105096402303522,-0.13935443140416826,9.840860997724159
6.936427266187386,0.05861317662940725,-0.1397146730556393,9.829226743060602
6.953786807010329,0.06418325057859697,-0.11629976943682367,9.827388198090523
6.956386815336638,0.06931669994522152,-0.13222236962040013,9.832668717934327
6.97377878766754,0.08000431805888827,-0.1290474084832457,9.831786948789999
6.9763461815527075,0.07958516789864552,-0.1369468744754926,9.82287982806843
6.993771074542205,0.0708799680449196,-0.13642805488733992,9.828596656732868
6.996305241423788,0.05914853772262037,-0.11764593615311766,9.832801843586623
7.013763516509071,0.07667757882947328,-0.1332517514811088,9.83879743475221
7.016263972699517,0.057789929432928835,-0.12409967898626963,9.830425217113818
7.033756380814369,0.06166069917262247,-0.12179525449680992,9.8411522262343
7.036222402217817,0.060429218442724496,-0.13431561922574095,9.845829162990903
7.053749477194376,0.06884782928576264,-0.12839967326737842,9.82917907631948
7.056180479591682,0.0649599906927355,-0.1279300724377029,9.843216904227878
7.073742899256275,0.07685484504354549,-0.12775724681455614,9.83643756631061
7.076138185547337,0.07713009605891939,-0.1290279624482502,9.832885007030159
7.093736743888523,0.06442278254505086,-0.13712490837118435,9.827057154356025
7.0960958094463065,0.06212479401031005,-0.12542267284019332,9.830153087949933
7.1137308195020905,0.07478218963048446,-0.13970353698186264,9.83725960506765
7.1160528903977065,0.07691889967091023,-0.1297182209600974,9.846447716586482
7.13372522486576,0.058873730708189805,-0.13909925312713753,9.835765955470167
7.136009682613452,0.06536179131374704,-0.13167023952024184,9.834435051351779
7.153719958033602,0.07133702769955219,-0.13187288404991554,9.827817549546554
7.155966176440691,0.07306199864369593,-0.12905481914884062,9.822386817273893
7.173714996413279,0.06428308311640824,-0.13939933651448813,9.829828350447404
7.175922247026463,0.07597200603703695,-0.12500671113082593,9.838234247911776
7.19371051919688,0.08227294504138065,-0.13174155480367855,9.828603392985546
7.195878064229142,0.0725876422704419,-0.12191433505875955,9.835846923978163
7.213706197966154,0.07350052679005044,-0.12942115135612248,9.830195376751725
7.215833401378018,0.0700640856195091,-0.13731464432354337,9.83279946450659
7.233702363648737,0.0660776153635172,-0.12250305967512766,9.831359477084636
7.235788455104267,0.06825122692370549,-0.13819939381958596,9.833906471863266
7.253698890932417,0.06545288791589646,-0.1269444065890976,9.832657695657733
7.255742967545947,0.06935641757751106,-0.13536262026904697,9.839127531106612
7.2736957516714495,0.06218632249446059,-0.13391529389207069,9.824982747430443
7.275697300183408,0.07295307444319586,-0.1264084581326612,9.830057087604409
7.293693108298592,0.05855958391338968,-0.12044331462696921,9.830636145563982
7.295651174928733,0.06400153393363188,-0.12639072533686008,9.831359451641145
7.313690818226334,0.06975667699636283,-0.1313207624696077,9.839630330564011
7.3156047088969025,0.0746681892927564,-0.14150484428669338,9.836387434773219
7.333688879477767,0.06486903704049422,-0.13495861764758552,9.827902964467288
7.335557744139792,0.06330259491254905,-0.1300468153858583,9.82977400163614
7.353687369943377,0.05998515233762523,-0.13368527533043192,9.83485877475407
7.355510496961219,0.06762278463267227,-0.1327165771430246,9.833422890220351
7.373686331784833,0.07009604217562318,-0.12333883030487106,9.839111804922336
7.375462682474652,0.06016066240464675,-0.13334264697232742,9.839156486828205
7.393685813111704,0.0710856797718383,-0.13916386110031811,9.844217824935294
7.395414541941636,0.06955951733967074,-0.12918654513749334,9.835845065535118
7.413685513734213,0.06428895330047764,-0.12353917606644817,9.829302211260183
7.415365943215802,0.0740756700413163,-0.12550580792226462,9.838172518508673
7.433685898059456,0.056230141544735886,-0.14259728127592156,9.839399554460336
7.4353167744664646,0.07677206901026962,-0.13169997759709007,9.84104208194364
7.453686530074845,0.07575036531009177,-0.13774844038975412,9.836018333642013
7.455267155690692,0.07480460064384843,-0.1361797267651843,9.847597125090818
7.473687666976003,0.062205566195267306,-0.14264102694620448,9.84458334628099
7.475217148524666,0.06661183624583632,-0.12368119687642908,9.843225358106915
7.4936893662650865,0.07979640317333518,-0.1252761698025968,9.831596391666821
7.4951666717103445,0.0686334749887292,-0.13100218995010665,9.831990156422192
7.513691447720639,0.06871217087834454,-0.13096037987627826,9.83280239664034
7.5151155887915895,0.07487348965347393,-0.1278942307410668,9.837877482168146
7.533694175370121,0.0728010498963538,-0.13141809982830546,9.832030792068853
7.535064082597624,0.06893015416551126,-0.13417784532979948,9.833836423958346
7.553697301168697,0.07242979321778815,-0.13333752059873094,9.83651252706992
7.555011984059003,0.07346811105542204,-0.13647896527559228,9.826301442309553
7.573700975886213,0.0637057748091769,-0.12293811421609481,9.832499817122775
7.574959406252858,0.07480423198472337,-0.1212967886900493,9.826936125785469
7.593705273163823,0.06727835859198172,-0.1262859283868709,9.829648214975805
7.594906314466611,0.06693041322370293,-0.12828914979115227,9.829268490541606
7.613709963664251,0.06821166714265997,-0.12173018803916165,9.84153753894531
7.614852583389896,0.07098560635738671,-0.12840103095843272,9.834391624852739
7.633715300944513,0.06666914706285545,-0.11669991418202884,9.829461238407324
7.634798392849953,0.06235770278116201,-0.13604929391557286,9.838306064998651
7.653721227381301,0.07200566951222659,-0.132994661878361,9.836095879189317
7.654743492242147,0.08661764562973623,-0.12002469609883604,9.834002909601434
7.673727775397946,0.059948642671725685,-0.13469656947708522,9.838747175976188
7.674688083232866,0.06618622219687548,-0.135776675421334,9.844641183644066
7.693734885276508,0.07517149239572056,-0.11691741757681337,9.828341600328567
7.694631975479967,0.07746036620436407,-0.129804336529542,9.830837688631648
7.713742575148187,0.06531365947361116,-0.12681107760839244,9.833618038815835
7.7145752611301655,0.06631919977691345,-0.11905071696827484,9.836221003200826
7.733751011799336,0.06826698556193792,-0.12466909448915632,9.829155443450068
7.734517958408031,0.07238792766308307,-0.13567511560773848,9.827922477132422
7.753760000650425,0.06378098822647678,-0.1347065512504103,9.839293188586616
7.754459924520254,0.06231477691453827,-0.1250368878068479,9.833536706060183
7.773769679980768,0.07371665026633993,-0.13778995951198686,9.825656600513476
7.7744011873897,0.07720498902231913,-0.12223119074600544,9.8346496667664
7.7937800570527385,0.06682295260343965,-0.13294793308011024,9.826104298849991
7.794341893680576,0.075978514691766,-0.12583154277868897,9.827517790107393
7.813791245342736,0.057601073088948074,-0.1333745127449722,9.83663004881462
7.814281824281862,0.07640334787361272,-0.12937888848230641,9.838370461110998
7.8338031344204095,0.07301302204264529,-0.12343718956081623,9.838163697266573
7.834220885793283,0.08258288475376488,-0.11431249049182914,9.83776511111025
7.853815551319766,0.08194402135656298,-0.12855773078142813,9.834969059673167
7.854159317166221,0.07697742480225266,-0.1245618637600625,9.82807068025141
7.873828980792387,0.07233930731514948,-0.12262952666908143,9.834325940188998
7.874096932134009,0.07066113769256772,-0.1240707792259182,9.833774426939677
7.893843026939877,0.059106020035525564,-0.1340272927523565,9.842028209450786
7.894033821273015,0.07379775937208799,-0.12172235064265653,9.838804600119886
7.913858020204882,0.0712528278681054,-0.1256157502095702,9.838522083648707
7.913969829063378,0.06679034105117188,-0.12066425915924647,9.84731872210407
7.933873758704394,0.0715339265326083,-0.13275516186419486,9.837131359660003
7.9339050061299075,0.05868911153909385,-0.1325268646085762,9.823736530494754
7.953890472083091,0.08265350970281429,-0.1249889050812054,9.83426411016478
7.953839183360876,0.06377834880941229,-0.13419841462338752,9.842170835265032
7.973907944183998,0.06797765776186063,-0.12891409573452542,9.839807218864271
7.973772630129341,0.067813983226456,-0.136986569827984,9.824478636280626
7.993926329753759,0.06689269374785706,-0.12827214717785984,9.837088848531408
7.993705131246001,0.0788325807092204,-0.12770750260052785,9.835022377594443
8.013945722729169,0.06771472814386767,-0.12505438793079374,9.834104046455064
8.013636560844716,0.0719041596832677,-0.12944173233082198,9.836954840868826
8.033966018526167,0.06984449702822457,-0.1367217215885591,9.829148001632337
8.033567134801723,0.06737823850220599,-0.125316277442663,9.83186178266805
8.053987298742072,0.07102544865252532,-0.11067390804304286,9.835724125634728
8.053496706210927,0.0758739460943537,-0.1269675596306172,9.834773945170028
8.074009637459126,0.06630571961954132,-0.1297640827223568,9.849354952741693
8.073425302832721,0.08206646761982984,-0.12141341303695682,9.83754096931504
8.09403313151026,0.06336034942701327,-0.12367113148441011,9.829817254746226
8.093352690303481,0.07326920962788167,-0.12436145767326952,9.84602019692053
8.114057499690885,0.060244062713187434,-0.12820340154677984,9.83992748496319
8.113279077797895,0.06342025686397235,-0.13276151559114469,9.828587996845508
8.134083058778959,0.076537962823835,-0.1372895414473926,9.835945744783828
8.133204274740736,0.07276236443352238,-0.13268620227621994,9.837286712046305
8.154109701695383,0.0732755430457905,-0.12546340226959293,9.831859219492998
8.153128215996977,0.06195570111133749,-0.13336795620432607,9.830765184670515
8.174137705940495,0.06445068485278703,-0.1415403865776898,9.844875046621421
8.173051102501406,0.07514945878221353,-0.13505521410367038,9.830369288340815
8.194166876467573,0.07975105586056377,-0.12609779740865903,9.824464218827229
8.192972675063395,0.07986994731890082,-0.12456597754475954,9.83482559161503
8.214197313434527,0.07557272187983355,-0.13069549664824892,9.830223267460193
8.21289298823439,0.059268206950743016,-0.13033896027328407,9.8433318693861
8.234229080501708,0.06656221800374987,-0.12501136109737732,9.830395594453798
8.232811944057838,0.07606177787154118,-0.1412766697492617,9.838164414578484
8.254262101200696,0.06928027979242031,-0.12924662881630372,9.837256543649735
8.252729490586416,0.06629572793735188,-0.11272742966083976,9.843103512380345
8.274296558579858,0.07705097822032796,-0.126791245801585,9.828519993751339
8.27264556993426,0.07317290972139869,-0.12294537313277797,9.841093039064466
8.294332485816998,0.05874223815028496,-0.1214982759735637,9.82878625587006
8.292560298066322,0.07674863994354404,-0.13198488674041295,9.832544269394134
8.31436991738921,0.05496379621413126,-0.13259410597333451,9.837153337844976
8.312473438830947,0.07574886929947289,-0.13886185522603675,9.837069795804146
8.334408949831385,0.05582596159078028,-0.12798613187613375,9.83040036129933
8.332384993827299,0.07227083158484966,-0.13054274867208612,9.833215668566003
8.354449508711998,0.07908719262630504,-0.12937652724953813,9.837900754400271
8.352294986399686,0.08037714942555096,-0.12934854834900472,9.837561207939796
8.374491774871489,0.0721463945887231,-0.13375890003572463,9.838716021094253
8.372203142362093,0.061249110975735654,-0.13217513208963785,9.825765223846075
8.39453572407603,0.06566627509515212,-0.13309105073736166,9.836003749944945
8.392109606669692,0.07226238547241165,-0.12696531823834942,9.835786444121606
8.414581480727984,0.07289394364843338,-0.12543692754748956,9.83635325236138
8.41201422448647,0.05381017428293548,-0.12222506731715219,9.8383589098286
8.434629169278306,0.06175534875840899,-0.13943213548018601,9.834555364207878
8.431916899043555,0.07754811124448444,-0.13596532235069603,9.833270597266159
8.454678689271482,0.06474805475381158,-0.1251905075303981,9.838155699451182
8.451817763091823,0.06764973405353616,-0.1366330063323058,9.831112171278223
8.47473027180536,0.06276620559171465,-0.1118978988495015,9.826530036334637
8.471716448299647,0.06340023085037601,-0.12077692934647617,9.827958392934955
8.49478388046167,0.07487912348897288,-0.1307929686972306,9.830338150812699
8.491613058205424,0.07223458471006944,-0.13829262853664562,9.839408119355436
8.514839803338221,0.06210082609554272,-0.1332371419055416,9.827315894592381
8.511507400620342,0.07013091016900576,-0.13549782490737813,9.837057186145444
8.534897782762352,0.06866398975481348,-0.12667097053995882,9.842365007316742
8.531399570849912,0.07310836634767975,-0.12968927068030867,9.83434056250659
8.554958228121324,0.06462499898736357,-0.12946261635516168,9.826025453360266
8.551289324484792,0.056508328497800756,-0.1343403863017221,9.841705846767665
8.575021002188919,0.05882898939527544,-0.14142074114874606,9.843539188760602
8.571176611418462,0.061116514616970256,-0.1323706447589962,9.82950427003054
8.59508643493496,0.07505566820672449,-0.12186550144955888,9.829037670706773
8.591061158180473,0.06534776526338981,-0.13360029903375534,9.8480266209266
8.615154497546843,0.07520682773146273,-0.1312448386390604,9.83472026116288
8.610943117908445,0.08910089459828421,-0.13068230681876633,9.83080073151907
8.635225275769358,0.05801869543981626,-0.1340598788728519,9.842562892822546
8.630822260422866,0.06642963560920227,-0.12952513361215168,9.844328549740759
8.655298845755633,0.06383538978928482,-0.13162543478840802,9.830663383728416
8.65069837558936,0.07326407570403233,-0.1390072344031863,9.836201434867759
8.675375651299332,0.08789691458227715,-0.1389768664138952,9.85650525558882
8.67057157699733,0.06671021198007936,-0.1214174398950806,9.8402947120369
8.695455499419689,0.07715938928622187,-0.1226691469429227,9.828596251577919
8.690441442615382,0.07507690953775234,-0.13137880054330153,9.843970061922807
8.71553860300563,0.06766211939325241,-0.14204430435746696,9.83311074661523
8.71030793299338,0.07581377079203887,-0.13888680980526258,9.831830889446673
8.735625214107825,0.06929829845925238,-0.1359071959216676,9.832428908123408
8.730170944620138,0.07820942244436124,-0.12721574758730986,9.833993357599732
8.755715323388982,0.06346561584187453,-0.1296412144534147,9.841353095831147
8.75003022706248,0.06868030839327306,-0.13117372537663435,9.834501886077202
8.775809274554678,0.0717470286828246,-0.1285176742359539,9.835206695813849
8.76988564347288,0.07124127838768414,-0.13452232461621735,9.834897785353354
8.795907241489294,0.05882037830461698,-0.13081071468825942,9.830345456670209
8.789737013181629,0.07099405938241925,-0.12346132183451763,9.838255613314123
8.81600929683847,0.07166783120888723,-0.12806957719496959,9.840074280510596
8.80958411510685,0.0612319581951096,-0.13199549997016685,9.840022925402746
8.83611575278061,0.06232115268070111,-0.1273590662229283,9.830347624867182
8.829426872517127,0.056730910779717536,-0.12680743932354374,9.823565481537095
8.85622677181948,0.06736514056339322,-0.14174421758940464,9.838863622561103
8.849264729493905,0.06705668939802405,-0.1434565208869335,9.83801638873656
8.876342580346394,0.05631375622871896,-0.137364946779119,9.82874339799478
8.869097690527635,0.06707300021171242,-0.13139572789881393,9.831925047831803
8.89646357099051,0.06678813337235971,-0.13209376743766815,9.8403438526889
8.88892553730111,0.06180284670061471,-0.1281356138083818,9.840430866830895
8.916589914074807,0.0650380595937956,-0.12381402648956244,9.841159286664022
8.908747729984295,0.07115741812078479,-0.12118421602132828,9.841791387255297
8.936721824165616,0.07545633560760122,-0.13822874749124975,9.838584741112017
8.928564141604836,0.06592061334403694,-0.13977863761361808,9.828074578781704
8.956859769590238,0.06994213216148687,-0.13775630001518047,9.835755330882277
8.948374448509108,0.05987641833595311,-0.13096302484290215,9.837446615937026
8.977003965388818,0.0637222746314682,-0.13940782416739808,9.832524390246448
8.968178284153653,0.0647451836826002,-0.12442588590529334,9.836892366938104
8.997154943933639,0.053574067989479994,-0.13600345739726927,9.84015023368255
8.98797527650609,0.056639537791619794,-0.12411791552856424,9.834813382030966
9.017312894518373,0.06278028594577295,-0.12660118682115873,9.832523776537311
9.00776489351499,0.07570152190147486,-0.12397005612289165,9.829251696962464
9.037478296639721,0.08132842153560389,-0.12984738903734216,9.839005433898542
9.02754683431121,0.07375253839668085,-0.12639217467476227,9.826752802164402
9.05765177074469,0.05856815968824092,-0.11828483162816984,9.833198160562754
9.047320483610914,0.07898195745658976,-0.13094856121872467,9.830862854868666
9.077833685463153,0.06176420009470016,-0.12941809703533264,9.847636965954818
9.067085472342546,0.05779757049229937,-0.13051780205722688,9.835220801317618
9.098024695393491,0.06984251790335054,-0.13458536156858714,9.831668990196244
9.086841208134565,0.07663314722191708,-0.12663605286755955,9.836801295217436
9.118225280279969,0.0684724085283268,-0.13363998822309955,9.834128884195554
9.106586857208336,0.06797183855292407,-0.12988022626338122,9.827919632150818
9.13843605622812,0.06330828913200072,-0.13327388016794223,9.834737285753146
9.126321984081779,0.07347880639876422,-0.12759788050186172,9.83168725897027
9.158657746208908,0.0705233564727504,-0.13865241977613357,9.830797591728441
9.14604569711282,0.07130584360832964,-0.13538368680815402,9.83021933525526
9.178891317929281,0.06241866496910416,-0.12817816817453798,9.839352596821335
9.16575746365794,0.07160729509605121,-0.13243566156785797,9.830656984696772
9.199137360839513,0.06579249770993426,-0.12811372761358333,9.825870818644145
9.185455982046717,0.07743744688641843,-0.13417858633942253,9.839735223892365
9.2193969542077,0.06734641640171624,-0.12469235572453596,9.845689234469292
9.205140625599618,0.07236003028226548,-0.13514781507595303,9.821371411416395
9.23967108479144,0.07168622995512408,-0.13262573662509408,9.829713806094308
9.224809966208626,0.06903305721357246,-0.13529272141165066,9.837204692002743
9.259960895618168,0.07740807356028662,-0.13374703275093613,9.837245999139242
9.244463229195054,0.05457759913766508,-0.12623509869569505,9.831859306928983
9.280267666276874,0.07279806732307083,-0.13105718933507512,9.832230683694092
9.264098781884224,0.07438944497192053,-0.14035834129343258,9.832979723838553
9.300592730289074,0.07360101967302846,-0.12222547413102504,9.838496261395937
9.283715329649867,0.06768084913651821,-0.11665293908287111,9.83209910924025
9.32093772902909,0.0631659956411723,-0.12302747173151656,9.837445491105594
9.303311125377736,0.0781289614245935,-0.11861621715012456,9.833878695894443
9.341304188543447,0.06325029815126473,-0.12956619260926622,9.835802634090296
9.322884363749528,0.07515060016934115,-0.12649912986974152,9.843298525223666
9.361694254422947,0.08387820624593809,-0.12714571360303392,9.833958351725537
9.34243300131904,0.07108743007957948,-0.1306179677164953,9.829306537730327
9.382109973796691,0.06393987528661527,-0.1265603499010433,9.828700002422694
9.361954801999852,0.06268421898780765,-0.1252253337049019,9.834462058445771
9.402553951629821,0.059853580604486936,-0.12746681328956508,9.836944674824517
9.381447193482154,0.06763811873426148,-0.12226320418345209,9.825104762687436
9.423028874266016,0.07641629695898346,-0.14657607225956779,9.838907711060015
9.400907088939503,0.06410125168812403,-0.12884487002250228,9.833736282341937
9.443537658000675,0.07255632927679882,-0.1337247227654675,9.822153521558208
9.420331250099771,0.07454179887001214,-0.1299439142372239,9.834131248853062
9.464084247416384,0.08030230405787105,-0.11988693726010627,9.838828838882185
9.439715754870491,0.07389191701140177,-0.1364302787010985,9.831219133235285
9.484672441647326,0.06570242393080537,-0.12885489486648594,9.825551224873681
9.459056153812226,0.06687130585828928,-0.12923992291341724,9.840519091563316
9.505307190534628,0.07114179918081838,-0.12512618242651236,9.844780953468979
9.478347535441744,0.06243083211154224,-0.12714532087587646,9.832682217052659
9.525993823747795,0.0724963215166922,-0.13028719512951115,9.825886120900803
9.497583875185214,0.07554637098240638,-0.12684694745535013,9.831361178479936
9.546738792444865,0.059528375535920275,-0.1318847754178368,9.839285778518065
9.516758487877393,0.07208103790795124,-0.12854953893980545,9.82983584618033
9.567549502897121,0.06553824485568127,-0.11445433929490897,9.826720359589753
9.535862938049803,0.06980234635362215,-0.1338526309921647,9.83500187874024
9.58843464762053,0.06786558409739829,-0.13075912836011427,9.84154171554706
9.554888157503163,0.06793300307550944,-0.13018254148095745,9.831713677659765
9.609404741431863,0.07342178043066097,-0.12031717108368395,9.833921122813129
9.573822461830169,0.07245953019008851,-0.13266424341801747,9.835859065838116
9.63047204549763,0.07612643954448856,-0.12039853744867875,9.828049722874256
9.592652393143581,0.06684196741465545,-0.13204760578740982,9.835342567161364
9.651651664640127,0.07467247441761093,-0.1318415063816052,9.84072854475484
9.611361416901888,0.06933691308614183,-0.11566602435782146,9.837129415661668
9.672961666007128,0.07982982231147587,-0.13864556691388122,9.82329461382295
9.629929385863734,0.07627349616525671,-0.12765414598376743,9.832225185200572
9.694424527181058,0.05932060582202679,-0.12668400360567905,9.839492020157916
9.648331543860147,0.06979421222865102,-0.13623996613443226,9.82807090808087
9.716067881825044,0.05623928757700071,-0.13211161881278752,9.825478658273134
9.66653656439167,0.06629071215932279,-0.12944153264115285,9.83361613108608
9.737926715420848,0.07328573452207242,-0.12773567977219022,9.836274735106102
9.684505453549242,0.06810015755615455,-0.13410138136243904,9.832323037508518
9.76004552450777,0.06146645650086577,-0.13926110221340066,9.831739151738276
9.702187203014518,0.061218399751296955,-0.13230558067343057,9.841481654636167
9.78248209372553,0.06798496137292688,-0.13263097161911008,9.82412429259553
9.719516015865002,0.08134187357481763,-0.12717446049783895,9.827001633445862
9.805312457165158,0.06137703125041253,-0.14557765597835656,9.827450372593962
9.736403511598537,0.04775595762674939,-0.13141130534809067,9.827930247825385
9.828639434981902,0.06965688743612085,-0.11620410249452622,9.832917666931108
9.75272977859895,0.06754711750742871,-0.13170249099340128,9.831175565912917
9.852604465489627,0.07851836541476237,-0.1211368632706346,9.832164829036886
9.768326359045592,0.056747201976368525,-0.13325134780110648,9.833183267862724
9.877408626211729,0.05992163336915177,-0.1332355204109249,9.832849571407733
9.782950938676214,0.06101288293983815,-0.11932446620444143,9.846367106144918
9.903347366711861,0.07196889636165649,-0.12764705870335286,9.835556176519313
9.796239923306546,0.05424538133518898,-0.1264709647462554,9.831870150124047
9.9308732152191,0.06475364895952294,-0.13564524271033648,9.835011591014267
9.807622977060479,0.07317779201881744,-0.11817680343105595,9.833571563956909
9.96071569406257,0.061053734860784296,-0.12930594837672368,9.827262344524593
9.81615176401543,0.06111346443709744,-0.12908913745773884,9.821844813036217
9.994131312008054,0.06306234836454824,-0.1263176509768575,9.838661719265817
9.82012449360047,0.07152896915464468,-0.12504318998491915,9.83785808912658
10.033483313311814,0.06549750328688099,-0.12966256481462957,9.837112817731143
9.816157396898271,0.05964805168291386,-0.13164045271488553,9.826462813143628
10.083798541983715,0.060439768868458865,-0.12355912285734932,9.833343411185904
9.796435592383542,0.061966103703601054,-0.13750765265885384,9.829505614713645
10.157954642533364,0.0595706741096495,-0.12413953228219594,9.837024493140802
9.738036675885011,0.07172519405504559,-0.11668992517830866,9.831653836004495
10.301425584438142,0.07422698497434978,-0.12950454421405064,9.828682437361634
9.534352019765228,0.07074899790352383,-0.1303969522792067,9.833903186785244
10.853758797291652,0.07249957114363792,-0.12819544347703382,9.831844980078518
