Time (s),Acceleration x (m/s^2),Acceleration y (m/s^2),Acceleration z (m/s^2)
12.330195704965877,0.07649494862967884,-0.13618153426746504,9.845125573126769
12.181696547613392,0.0642502939920155,-0.12964470351160265,9.842791555298831
12.339778738635934,0.06533621983331547,-0.1327019181687149,9.838309311890482
12.210804294222344,0.056427170212449154,-0.12638406488635986,9.844766332108595
12.35166494511581,0.07941581138193045,-0.13754043471445912,9.837116490668881
12.237994203368523,0.08117286550629692,-0.14260289095504475,9.833250296000218
12.365165087798903,0.08221334825477812,-0.13802643191643696,9.842209304239828
12.26381327952776,0.0656249129382823,-0.14959679388819053,9.840456181521871
12.37983975344886,0.06912829175947241,-0.14596031939525944,9.84255855021805
12.288618109951612,0.05187519747396407,-0.14935676925546632,9.844772436647537
12.395395989755116,0.06563440141624888,-0.15167873153481998,9.848404641431845
12.31265201320029,0.06331033529752753,-0.1313094144980204,9.844104073609216
12.411630517605502,0.07771788230837529,-0.14100253600965,9.847514653165073
12.336085873933085,0.0590753228028981,-0.13583821053460973,9.839661699401903
12.428398152408112,0.06932048590211043,-0.1398008389460963,9.841154833318845
12.359043770414672,0.06263020379078281,-0.14396948386954725,9.844255465922519
12.445592482803951,0.07114339564058518,-0.13928845496644826,9.837806190307113
12.381617804623168,0.052259819565184926,-0.13085090007120848,9.838738955239082
12.463133568980846,0.059947039994556583,-0.14111694381704976,9.849630718757368
12.403877667911054,0.07167139275075701,-0.13290669830663843,9.837861909326898
12.480960199935675,0.08460360379539746,-0.13494707970470568,9.838344774604487
12.425877083590468,0.07876007569326192,-0.14485244295318023,9.831035397910545
12.499024866387607,0.06354972239424381,-0.1377781868805524,9.83390196658743
12.447658469684972,0.060581728343237294,-0.1400463179726894,9.840686018306464
12.517290024773665,0.07494628531226342,-0.13220910968062663,9.84662937287219
12.469255137100548,0.07475750790387632,-0.13932995800788575,9.838217812880007
12.535725494333802,0.07243513858832705,-0.12629623787359567,9.84119053393606
12.49069421158975,0.06223368357301924,-0.1435393208417172,9.84301368265464
12.554307066624588,0.08478373872280964,-0.13802070864184512,9.843031798299874
12.511997624211556,0.06517581214006611,-0.14928713644626476,9.838384035517253
12.57301492253085,0.08388091944946671,-0.15005458024235227,9.836519390506043
12.533183511786653,0.07040973398155623,-0.14951615750283262,9.839657536534295
12.591832414656563,0.07360379261529905,-0.14901753985992475,9.846488124225084
12.5542668658366,0.07787500094122397,-0.1406446796598896,9.844966731527327
12.610745903385371,0.1695896899455767,-0.13748345728374564,9.8416753119617
12.575260202330995,0.28458112155989534,-0.14105815247330403,9.841690903344233
12.629743876466692,0.36264808393211,-0.14346359078825846,9.84576390704529
12.596174130503812,0.3156867251974559,-0.13282466691501102,9.846587654034883
12.648816687596913,0.19338161370676885,-0.12423657442568278,9.845058961649183
12.617017573693378,0.06170996727561336,-0.1419841100351281,9.846267112525867
12.667955745220857,0.007800429119606323,-0.1232763830727294,9.846589360765682
12.637798156774734,0.022147705136870015,-0.13655945562538804,9.841296424098347
12.687154308656009,0.058008961620107484,-0.1405825135234915,9.847688774009224
12.658522778283203,0.03915122814056438,-0.1515809045927725,9.849352059551444
12.706405967436307,-0.011072404284685505,-0.14397963745794934,9.83223108212517
12.679196977810525,-0.09868766313221154,-0.14382805997538756,9.84275032068935
12.725705556164094,-0.1387345808183488,-0.13335379238337958,9.853682716515536
12.699825563803191,-0.1393623117486361,-0.1353672394459989,9.848646635006585
12.745048308120117,-0.12102316319036964,-0.15322183322099528,9.84530150607588
12.720413044684856,-0.056040596858532646,-0.14290582496417428,9.842207645180032
12.764430366438518,-0.10037625329432395,-0.14098754230553429,9.856720353305743
12.74096319875048,-0.2055953277631066,-0.15825086689623702,9.834650698690082
12.783847879086698,-0.2505438888460218,-0.13441865105781114,9.849739423126705
12.761479368383908,-0.23239408161902989,-0.16309627827772538,9.836193249984747
12.80329809539582,-0.1707096151748695,-0.1498958484937253,9.847417918632575
12.78196446188626,-0.06396227886588154,-0.13849922612239765,9.840269552224905
12.82277785586188,-0.013803982053635772,-0.1331848957442959,9.845734620467066
12.802421217271048,-0.04165236536244326,-0.1418164150916474,9.856474223473679
12.842284835228217,-0.05215414252341534,-0.1460395958877623,9.845596830444386
12.822851801633078,-0.1064385966596722,-0.13388271817303235,9.84234434913795
12.861816890506372,-0.054782570967250685,-0.144071509126218,9.851522726679075
12.843258342504953,0.02264114336336722,-0.15178959900557434,9.844156352172234
12.881371986140666,0.12141323319476743,-0.14654398755316897,9.835548502334364
12.863642801058386,0.14663466726488916,-0.13222703803637717,9.850662273400394
12.900948331980516,0.15120318302144062,-0.12745085030621173,9.844180035367204
12.884006866416533,0.1630293755617247,-0.12909384311418295,9.839147289445496
12.920544331789909,0.21191466733471823,-0.1313538411837893,9.842039559467436
12.904351897719716,0.28934932859939283,-0.1259839985451229,9.849842981650081
12.940158529458593,0.3586535526486137,-0.1392099541026567,9.841461257945335
12.924679407130167,0.3983626900448341,-0.12488875148235823,9.848195411907264
12.959789738574116,0.4282104113737062,-0.12945241076456832,9.855817109458897
12.944990618649086,0.468731105667047,-0.11965607370985082,9.84326893113489
12.979436681834997,0.5332910510986523,-0.1258838139050502,9.837699162730479
12.965286560094865,0.5271149074808672,-0.13330488007338626,9.83017881169617
12.999098345677146,0.6436276373873905,-0.12272140843885387,9.86038957267247
12.985568252012598,0.5949686664595538,-0.12227744948378651,9.848090435316516
13.018773573152837,0.597599921278467,-0.1269280041158011,9.847147902494209
13.005836868145076,0.571535703873452,-0.1207288903286118,9.847415674816185
13.038461665833651,0.3976640093014693,-0.14569681506373583,9.849965736022579
13.026092999949578,0.2667006046286201,-0.11287501673109002,9.833756878693217
13.058161709925091,0.24709704911482958,-0.1296137883264102,9.85201795720561
13.046337596207877,0.2553470661966068,-0.14479574072347323,9.849033195744083
13.077872999754806,0.26706782640943727,-0.1335888036019133,9.853779869457899
13.066571270160507,0.24654866775298237,-0.1293158548941665,9.846341559933816
13.097594917480324,0.16574016742587064,-0.1323663622756623,9.861026903034672
13.086794731376708,0.0645038296696261,-0.13722508390406166,9.840035653520433
13.117326699857612,0.008473478512012942,-0.14457959177853255,9.836414074703406
13.107008493746996,-0.10308627614474165,-0.1403901118777954,9.843638516419439
13.137067800284841,-0.1486880902848847,-0.14707104311928587,9.851406223345505
13.127213317050417,-0.1771304792609088,-0.13509052988551598,9.841702748649274
13.156817671917112,-0.22749084029767322,-0.15714869486526703,9.850708332595081
13.147409469489315,-0.32860054155875396,-0.15429428665692968,9.842159142314197
13.176575869556489,-0.3831596070819729,-0.14910456763492766,9.844165255772994
13.167597711069414,-0.4630901731806969,-0.16371578610179596,9.847206502784449
13.196341959776223,-0.5302298710240241,-0.15608213742948143,9.8321285135778
13.187778222876581,-0.7816230211971635,-0.17953615827396807,9.839070624538332
13.216115393646403,-0.7866391342654594,-0.16379957841753223,9.831678772946416
13.207951626566263,-0.53334851148978,-0.1577041888796172,9.83596440556819
13.23589587268874,-0.48890835496601104,-0.17195757278513413,9.844886848567718
13.228118081367692,-0.4241045486436782,-0.15861989797256099,9.837254578399014
13.25568289835822,-0.3768534803631245,-0.16314111156792857,9.848054678634178
13.24827811714486,-0.39873643509171813,-0.1471461280270153,9.826663956610027
13.275476388989492,-0.4485377661343018,-0.1611435347804316,9.845338236976962
13.268432058100407,-0.4620302919840352,-0.14450483762630859,9.85128062683092
13.295275690378961,-0.41543483154228933,-0.14858296821374203,9.843004373360149
13.2885801297809,-0.32531187671007944,-0.15407626589303738,9.843048286312976
13.315080880413067,-0.2739489844091585,-0.16167332122843295,9.849233568231291
13.308722701452902,-0.2161703011137995,-0.14129070595539195,9.854325877124213
13.334891243383908,-0.09509815090795516,-0.13967804530118563,9.851087669499293
13.32885994592721,-0.0478329834582232,-0.1493470932227225,9.840788900315811
13.354706846970585,0.040243565065629594,-0.14976319994025244,9.861954575109275
13.348992204380272,0.18025512028490379,-0.11973331521494542,9.844230398791062
13.374527291509366,0.3022388039058787,-0.14149012598354316,9.843641556378182
13.369119715066539,0.37540297068875433,-0.14383221504379104,9.859738184960847
13.394352454947406,0.4459053849064036,-0.11031479075761892,9.838283162293521
13.389242668194516,0.6048335626201714,-0.1268882323215106,9.84970378224108
13.414181943585469,0.7236890237602145,-0.11563107209398354,9.854325616368989
13.409361253449989,0.7456030391739007,-0.11882188574348815,9.843298390687664
13.4340158052441,0.8027276733207462,-0.11347644399684548,9.857215932326643
13.429475659403796,0.8432723034413391,-0.12362633605643131,9.856989422274493
13.453853701574085,0.8930535145926528,-0.11481362886041803,9.85271033191655
13.449586180557636,1.0024093570644075,-0.11050792863429261,9.861466363127606
13.47369549327316,1.103135853602278,-0.10337354423215937,9.855672323778425
13.469692816648598,1.1985417860227037,-0.11101050838926044,9.858224092724564
13.4935409697889,1.1921427649348157,-0.1094659866807881,9.854834229294106
13.489795925179703,0.876036831509238,-0.11514830318017971,9.838797080699788
13.513389931798162,0.6995792979082937,-0.11379943686982856,9.862470459408513
13.509895534415561,0.6162590102638028,-0.12699547215137713,9.8558246156203
13.533242342930533,0.682087827474809,-0.11757380380122179,9.850111135635471
13.529991820301317,0.665887910387976,-0.10736661844685073,9.834821029781896
13.553098005967545,0.5790207411565188,-0.14002909568350602,9.852924888321128
13.550084790369679,0.4400028561450076,-0.128136850168007,9.860197749963762
13.572956803713444,0.3108504719445029,-0.13446661011982522,9.838392863799122
13.57017482492131,0.16329420171304102,-0.15125591016149068,9.834158639770187
13.59281861355579,0.049219312478547494,-0.1157450986954026,9.854117229112358
13.590261975334414,-0.05286513117337243,-0.1537215356726563,9.84240983695236
13.612683182560104,-0.2810646397589793,-0.14228875572283975,9.851824939841842
13.610346223491817,-0.40575757712304106,-0.15554824476639806,9.830671120144123
13.632550683644933,-0.5018635609919904,-0.1654139152778328,9.835436503510532
13.630427691801978,-0.59733346833342,-0.1505012352077216,9.841397630861424
13.652420721512305,-0.6711057084782908,-0.16390026077184242,9.848497134371696
13.650506636949183,-0.7574071327022195,-0.1534596739088582,9.833640087566906
13.672293299516413,-0.9055087660347869,-0.17443653680647286,9.832921705421063
13.670583083321215,-0.9529803059927792,-0.16655917053881725,9.831663904846879
13.692168325699518,-1.0234756443584079,-0.1717367122397079,9.83543132794174
13.690657197799899,-1.2136725567610158,-0.17830109684094647,9.833313202220141
13.712045764222992,-1.0652781308990193,-0.16818038931415952,9.83259581428708
13.710728861446837,-0.7711554658925787,-0.16559665381868371,9.838410055350707
13.731925481991265,-0.5259860464462662,-0.15686316202402686,9.853141702243986
13.730798359006585,-0.5927836448386608,-0.1672970763469154,9.829315973012278
13.751807354347541,-0.7092657655929968,-0.17353486397366283,9.83928294261526
13.750865660122614,-0.6951444599513872,-0.15673374113695282,9.838923605694532
13.771691282068868,-0.6088238276628327,-0.16466802469917957,9.836552491727284
13.770931004709636,-0.5290014153495755,-0.15458504570467527,9.84085276235244
13.791577396837003,-0.42805586279890545,-0.1522047742240388,9.847958505540532
13.79099427965363,-0.29743309989347355,-0.16731077578276687,9.83941016583328
13.811465394684639,-0.20523541768955889,-0.14956049547837966,9.852320375456301
13.811055606434943,-0.17141117256115956,-0.16500182850751866,9.837277599766711
13.831355287320589,-0.022618583828668812,-0.1337347122798504,9.864891561679379
13.831115018213156,0.12457028906376745,-0.12114431182816347,9.824580044424001
13.851246966682234,0.2227390736916425,-0.1529413662389232,9.877994861590285
13.851172787208553,0.3713724227124268,-0.11675685870055538,9.848807662830657
13.871140481686949,0.5108856079926536,-0.14013577477816494,9.858015521046317
13.871228674096178,0.6070230477397736,-0.12896123825676448,9.842493051839527
13.89103568676015,0.7506652294793529,-0.10126923381218518,9.842674328503298
13.891282878900695,0.8063325630963627,-0.14127414016755527,9.866225588419889
13.910932492334906,0.8400187448237701,-0.1116011675283723,9.857774098933934
13.91133548033771,0.9831064114714363,-0.11409546531672031,9.849718458193772
13.930830926344356,1.0422718822722365,-0.12790948748633885,9.855309162940383
13.93138656993648,1.0284800909804719,-0.11250905791842059,9.850930773632593
13.950731006240789,1.117940660027344,-0.10301361828640822,9.851828246086807
13.951436174882863,1.1263824558557014,-0.10325072335873957,9.847958800284376
13.97063241832612,1.222613493760023,-0.10720149111901636,9.86518267585331
13.971484271453951,1.3133448097268574,-0.1092450664694119,9.849191916945639
13.990535325531711,1.0630099547515524,-0.12492350792755534,9.855524778433269
13.991530848052102,0.7481882319034768,-0.12964916227564244,9.862663819584341
14.010439619171972,0.7085216789609999,-0.12276698740148718,9.866987952335377
14.011576133302327,0.6731794198464679,-0.11624365253141329,9.85789256188833
14.030345304856782,0.6019638852854554,-0.1259392114137628,9.84814470277793
14.031620047014187,0.540474739577262,-0.12493547568841343,9.845508460396118
14.050252351074688,0.4564630426141909,-0.13158864767192857,9.856278622532052
14.051662776374577,0.33317431230331335,-0.13900326083969886,9.82881338400534
14.07016046704328,0.23490791275012973,-0.12356988827825002,9.862136921078998
14.071704163046553,0.14075181394386124,-0.157697769024047,9.832256785494705
14.090070011070585,-0.006889438600304042,-0.11910574751279503,9.857806351500999
14.091744411942303,-0.06297762528095739,-0.15044357816505471,9.844250541400422
14.109980715749588,-0.2430364445667035,-0.15438004777532116,9.853588454531764
14.111783277571565,-0.42805955222180125,-0.14389398364670553,9.841550005179595
14.129892512411809,-0.474852345887824,-0.16569507138609968,9.834712364727741
14.131821231303576,-0.5423169278987974,-0.14278482439726814,9.834687949023866
14.14980548326558,-0.6502504681106507,-0.1627163559049638,9.84708781879434
14.151857991245146,-0.7591228716725498,-0.17063051363465415,9.83599896929751
14.169719538476171,-0.840901737641588,-0.16825403616868506,9.828587294272682
14.17189362074116,-0.9569559046656392,-0.16923750275702065,9.832155910074254
14.189634692452906,-0.9252611977376978,-0.16501595465867744,9.83882411501795
14.191928359015725,-1.1196979223357097,-0.18623129815811906,9.835818174722695
14.209550751659494,-1.3106364667570731,-0.17838038243522567,9.838754814537202
14.211961783788936,-0.8659665754847485,-0.15675527312615434,9.831972508537683
14.22946778974767,-0.5229050905001563,-0.17413574320218603,9.84275639662308
14.231994477445006,-0.5818262083608047,-0.15651381841964704,9.826354228168741
14.24938607072646,-0.7182929406480718,-0.17515671009832096,9.835950901655941
14.252026069851494,-0.670451487234149,-0.15704089393511428,9.83029917393756
14.26930504179493,-0.5855760088097836,-0.16629645281019437,9.845168213056137
14.27205684200051,-0.5534103111997092,-0.165627093740146,9.851521655634764
14.289225083554038,-0.4438664118921474,-0.15157690009798824,9.842175995189715
14.292086693751553,-0.29043886672834573,-0.1584774335411108,9.840530250585015
14.309145814376906,-0.20948875486529492,-0.15314028107363498,9.86455645031884
14.31211547722864,-0.15307491871925963,-0.1615015260861117,9.832705156087716
14.329067634550526,-0.0016743482850966513,-0.13789796913509947,9.85599538800154
14.332143589577194,0.10909267084052547,-0.12399586402884946,9.8263781828944
14.348990190206642,0.20897177908058295,-0.14857603315402473,9.870376486990711
14.352170800658213,0.34227729260006057,-0.12530726816264157,9.8366027109955
14.368913632895339,0.5129673908284855,-0.13514613679140658,9.857582898250719
14.37219727926892,0.5855737373213533,-0.10850228822990013,9.847713216528092
14.388837798389197,0.7006196212585214,-0.11438999031550022,9.861478248599038
14.392222924708257,0.8113710658629508,-0.11816984933526246,9.862156658440846
14.408762845197,0.8870497904115554,-0.10724238408376197,9.847066689884118
14.412247728182171,0.9703535513107852,-0.11247384204567543,9.853323719492025
14.428688609680439,0.9759218629022983,-0.12479477040781138,9.86104784770426
14.432271922659638,1.0340288270840294,-0.10701388206142134,9.851891944945352
14.448615080872887,1.0974942900810762,-0.10828432698664539,9.853677717366477
14.452295193629672,1.1639805799955336,-0.11458376757595716,9.858389374160298
14.46854220142352,1.1876845576848587,-0.10986403095474935,9.844561051802925
14.472317908544362,1.3005168089405772,-0.09262543977630545,9.85788365965763
14.488470145109577,1.0722328188482775,-0.11343372630041279,9.85686565041116
14.492339879219786,0.7662855438888418,-0.12266813729418713,9.844870254462759
14.508398765888494,0.6851474175448485,-0.11238565000510238,9.856225847084488
14.512361225683891,0.6962555340107828,-0.10973440589687736,9.855507940168179
14.528327952876188,0.6623483386403539,-0.1232647194660697,9.849291192270462
14.532381782891077,0.6125924120149214,-0.11992581101049103,9.844175646800396
14.548257872116444,0.47823974567789224,-0.12424222059498859,9.862887157256182
14.552401809415775,0.31553655462676616,-0.13681761543210003,9.842210718703582
14.56818844764233,0.21499977170732654,-0.11269575016330817,9.850758465334659
14.572421246574676,0.16388861139018443,-0.14513159046729218,9.842576493060164
14.588119629578529,-0.03192841771052971,-0.11796171244301545,9.85406696548055
14.592439966815274,-0.07706751039223984,-0.13775469419067074,9.833238232367114
14.60805134289749,-0.217650777666548,-0.1488599787505118,9.845841325701269
14.612458118856974,-0.39567643008376063,-0.1442518756183783,9.825174267550251
14.627983798867099,-0.4812617801933798,-0.16599275447442474,9.832456587899435
14.632475654461873,-0.553390020377404,-0.15847586620144344,9.850589413313763
14.647916709144996,-0.6586375464126313,-0.1519080730365398,9.853519854833591
14.65249274133948,-0.7483865539551988,-0.15924827045471993,9.830909813214037
14.66785016444821,-0.8088243740680761,-0.16292960038491436,9.829836077800518
14.672509160616567,-0.9546399370147335,-0.17563247755272696,9.832850279244502
14.687784207071351,-1.0031805715158206,-0.17031604740993073,9.831097041784554
14.692525167347695,-1.1424896077774906,-0.16821879421423264,9.831161859630324
14.707718744775983,-1.1487148812924681,-0.16935936812781646,9.838313629785638
14.712540525744403,-0.8608966187438148,-0.1576335847508953,9.83931072421963
14.727653850421396,-0.6298042242660641,-0.16412421715853467,9.835750446589044
14.732555332866397,-0.6105377136452601,-0.15163349540462912,9.834971223837815
14.74758951602017,-0.6778424276297308,-0.160673688844015,9.84370092244907
14.752569668074724,-0.700263714089596,-0.15009704823745187,9.834358642038147
14.767525565360408,-0.6337067421857208,-0.15071837869717922,9.837919590930916
14.77258350308562,-0.5663756366807333,-0.1685833435007842,9.833666831968754
14.787462239694719,-0.4667420177052761,-0.14962261288649337,9.847863887619605
14.792597018008445,-0.31886760422082594,-0.15685067985421855,9.850297674248372
14.807399305455677,-0.21512221215862842,-0.15099443647221258,9.852960465438366
14.812609784884492,-0.13186129258606336,-0.15299242328391602,9.842543887371267
14.827336803324613,0.0004317022131865975,-0.13779154173540153,9.859521552656862
14.832622332224284,0.14272790832764642,-0.12019862845786328,9.829767694348366
14.847274728427703,0.1915439526704793,-0.1427310078018069,9.867328970957477
14.852634270153983,0.3109906499383161,-0.11374355898261544,9.845842605686393
14.867213094320505,0.47710045625834874,-0.12949398023264666,9.869361594289513
14.872645831100304,0.5654883356592351,-0.1163507126908188,9.849273937917593
14.887151997469386,0.6967622731587708,-0.10730047527312024,9.860648021176596
14.892657013148504,0.8403996460412887,-0.12867143306968265,9.8530869604325
14.90709133514473,0.8645524549178545,-0.11031296581600894,9.84082066793932
14.91266768796534,0.9686340686682239,-0.10200221399682066,9.856987719636269
14.927030957360014,1.0030292746579408,-0.12216803783686682,9.856290665377472
14.932677976591592,1.0344260955505356,-0.09752636243476571,9.855040037063157
14.946971027130134,1.0806390195367659,-0.10754505777053562,9.858727256265198
14.952687828284976,1.1544766445166195,-0.10610940796961989,9.855144939212474
14.966911578899154,1.1699562853489986,-0.10924665907143821,9.868856183944743
14.972697316157124,1.2963923505753923,-0.09641545530377262,9.86655900149
14.98685242001745,1.0817960559203095,-0.11743940272488913,9.850522753605686
14.992706408957504,0.7711200078531587,-0.11062099573877936,9.851161086192423
15.006793658408926,0.6707353911878907,-0.1152478409876734,9.848524143060141
15.012715209147677,0.6911148987764688,-0.11063040304688133,9.859429598792145
15.026735339273587,0.6702791320097033,-0.13280030366574647,9.852457725439
15.03272350976486,0.6301031578997256,-0.11163605583039687,9.837150829050263
15.046677327588476,0.5209173668967325,-0.1252803044825791,9.859749586501762
15.052731508281346,0.4054811904782259,-0.13731288599775288,9.839806205045644
15.066619661334533,0.2143706921416306,-0.12118417979412592,9.8681733069577
15.072739188353966,0.1415254769068163,-0.14386244273758123,9.828981428052899
15.086562362402466,-0.015703134016949047,-0.12031100615807291,9.833267296468685
15.092746450145416,-0.05560690637159195,-0.13728970854129544,9.847239504546538
15.106505397701733,-0.2198222210357157,-0.17902758730719923,9.853939111495295
15.11275341417956,-0.38273529309856247,-0.14601971539741568,9.847636867691785
15.126448825500054,-0.45834556398381127,-0.14951202559622453,9.841975321639653
15.132760078091554,-0.5370707650410428,-0.15870139107980308,9.845812312140875
15.146392486530111,-0.6373332433497397,-0.16011596845840428,9.835390832674085
15.152766338999927,-0.7517338405981151,-0.16794279828328637,9.843992743576305
15.166336482646297,-0.8319663693219104,-0.17332766629001795,9.83778215731219
15.17277222718612,-0.9697871290853195,-0.1743694663465235,9.843335677985298
15.186280821495462,-0.9543479826784759,-0.17066353949727497,9.83689832446667
15.192777910167942,-1.1285897466794357,-0.1811537114434441,9.824681225554158
15.206225485160774,-1.2022630683013056,-0.17225463514439435,9.841746567887094
15.212783334323753,-0.8714419989062215,-0.14112719780165803,9.839897681973596
15.226170470834427,-0.6328153452217182,-0.16039188307185404,9.834300417835928
15.232788292425907,-0.5987610983064265,-0.17499723391101488,9.842791449971475
15.246115673202508,-0.6702348551548084,-0.16096470239028246,9.842374254926694
15.252793135053276,-0.6844480419197088,-0.15868516167901342,9.826909914255243
15.266061210773797,-0.6348473442648294,-0.16055572965301626,9.839607542774019
15.272797596278266,-0.5776777494535446,-0.1592047542536369,9.850335081583989
15.286006950450695,-0.46515631718331063,-0.14520659338690206,9.834501251570456
15.292801745614108,-0.325020873659628,-0.15115641589438253,9.840782335655298
15.305953092531519,-0.214621972863643,-0.14881097957945336,9.85056082866323
15.312805656432088,-0.15373664456564834,-0.15167240900780105,9.8377868273182
15.325899510135036,-0.062201903899659315,-0.12986212228471083,9.854745778524885
15.332809274307417,0.1258949668608853,-0.12614326966026038,9.828088708112245
15.345846118317828,0.2634561540298166,-0.13478375770679438,9.855731797819788
15.352812752836963,0.31687296880590904,-0.12413368543319389,9.848409356934697
15.365793042451475,0.45855911774825947,-0.1325393540457576,9.845913627789262
15.372815873454492,0.5526696954773824,-0.11993265952762217,9.858906285716824
15.385740174185813,0.6817790789845589,-0.11327318440566092,9.850025420744156
15.39281861095946,0.8426360686373104,-0.12100895758846542,9.856272455387137
15.405687602998963,0.894854894642455,-0.10597362436552697,9.835684616055634
15.412821239233825,0.9815850754890698,-0.10124970474352764,9.860897595242461
15.425635313195853,1.0087629867758887,-0.11972560008304656,9.858706104575814
15.432823737963597,1.024358146648934,-0.10559502544419919,9.856214576863907
15.44558320222678,1.0979535765859163,-0.10320964540965624,9.853253652304815
15.452825701457398,1.162474047066866,-0.11231309172337184,9.85990338627624
15.46553134265374,1.168260360121197,-0.11150905041177386,9.855786310491366
15.472827664626253,1.2975228106344943,-0.09716361439074923,9.86251855248344
15.485479682999532,1.0877963028205349,-0.11206718520586018,9.86251863077178
15.49282936693242,0.7785306101819219,-0.11060301685628537,9.852485602541329
15.505428216532172,0.6717857712497851,-0.10294203437066299,9.852648022144457
15.512830781770226,0.6907637792511175,-0.11553570247015864,9.855316681719177
15.525377103722994,0.6189050108704579,-0.1362247387974533,9.85539928010526
15.532832013752332,0.5973574310030739,-0.12034256319093527,9.835100752613968
15.545326163010953,0.5180208016480113,-0.12247759851844302,9.865859606076091
15.55283295738626,0.46414792247582737,-0.13665518178183306,9.835946165194432
15.565275460912178,0.2537497272330549,-0.12613569689270465,9.862988906403881
15.57283374219636,0.13414913838645892,-0.13743149901170346,9.829015726739431
15.585224904423603,-0.02392204779725976,-0.1339286849084239,9.833237374506007
15.592834243082898,-0.09388863964400597,-0.1306402683010936,9.853117650618564
15.605174544434073,-0.2533193199490271,-0.17203508430088837,9.839473683579072
15.612834532267188,-0.3917174513756378,-0.1484608910757936,9.847108263036224
15.625124375994147,-0.43832078421879866,-0.1458767646548941,9.830290050216654
15.632834780382368,-0.5180446691344885,-0.1622179561299298,9.850713362927909
15.645074482842597,-0.6865045254048047,-0.14902609612538323,9.837568347996132
15.652834730313295,-0.7704484839657774,-0.14947140044680585,9.841150925365515
15.665024778293299,-0.8200332070663564,-0.17803637675369144,9.830046759667129
15.672834416425381,-0.9526873616598255,-0.17415091304465652,9.836552618358859
15.684975317831741,-0.9591033757965202,-0.17728344566623983,9.838363211912661
15.692834001248917,-1.1303612636388223,-0.18294323947981328,9.825529110356825
15.704925933079497,-1.223976639499878,-0.16593331330250893,9.834439182540264
15.712833364803133,-0.913081361347664,-0.15473588893580134,9.841642450004727
15.724876752988793,-0.6331259884552881,-0.16787349979416555,9.838894289223092
15.732832586726175,-0.5852190634280471,-0.15847124797327752,9.839071438690697
15.744827752571007,-0.6642047463251897,-0.1564823103238167,9.840019755159322
15.752831525082248,-0.6903907096250697,-0.15258974764883618,9.81628012587567
15.76477902877138,-0.661891409311156,-0.14472079552498485,9.839291603136244
15.772830435313974,-0.5504318978910949,-0.16945856825603842,9.84351825905369
15.784730418728717,-0.4465837410192705,-0.13879761613460698,9.821918928098011
15.792828973097315,-0.3223294508714645,-0.15526152737564558,9.836929665777356
15.804681930921761,-0.32992041170057684,-0.15229164231354345,9.845395911656539
15.81282755938683,-0.29402409351756803,-0.1505681696809288,9.842069253897124
15.82463365309493,-0.029335991688003306,-0.13178386360960023,9.855587033343289
15.832825866223631,0.16835271988740652,-0.1252141978491209,9.832195516696165
15.844585581318261,0.2996966969533228,-0.14652441345194445,9.860875489330962
15.852823992118314,0.40338583369481334,-0.12181568576976311,9.840104937277763
15.864537567844604,0.5134854195515388,-0.129438215204268,9.842332347413558
15.872821893997074,0.5924858521056623,-0.1270745444494834,9.851240402080707
15.884489820343113,0.7359383591420323,-0.10589095477240605,9.851614973880915
15.892819773516031,0.8718122052790375,-0.12808766664587237,9.868701940646751
15.904442251773123,0.8973380333526142,-0.10523261454891902,9.84576412714608
15.912817387667404,0.9693719824536218,-0.11145812569731355,9.861750062705834
15.924394715526885,0.989498593114174,-0.11898750592701178,9.84776604327859
15.932814763886944,1.0340481665409533,-0.1110066011941443,9.847179086296645
15.944347327134183,1.0972767906601475,-0.10388743004988579,9.84926688061463
15.952812159564445,1.1468476158200565,-0.10348564510944293,9.851919743750178
15.964300138034844,1.1932451148249625,-0.09688040899593447,9.85342041865077
15.972809464653844,1.3189751653012385,-0.09316240255784175,9.853044233869372
15.984253150994643,1.0948377986340265,-0.12053410399646376,9.858060231341883
15.992806553169789,0.7466834714743833,-0.1258348455155415,9.853606021175311
16.00420631625349,0.6729836390223792,-0.10160110770985148,9.852626060594073
16.012803383310153,0.7061628157777708,-0.10655103315101702,9.85690784534888
16.024159524154577,0.6558426977620172,-0.12922939362269178,9.846192078430267
16.032800195387207,0.5921678720762724,-0.1188149475543815,9.840237735828005
16.04411296706463,0.4874179275923188,-0.11744789122299211,9.852227775233418
16.052796760301113,0.36337256153231196,-0.15576208129360655,9.850284665257966
16.06406641008955,0.17884610224750638,-0.13160221809159345,9.858645762023913
16.07279337265522,0.1490593731578646,-0.1426533517575202,9.832916279610233
16.084020131037335,0.017390386106917784,-0.12975902958456534,9.84867110548771
16.092789720911693,-0.08534175602001978,-0.1337385417722896,9.851689037608043
16.103973913527724,-0.2577221271598266,-0.16285127815520337,9.837362379255142
16.112785957603954,-0.39520521394081093,-0.15197768678587514,9.844107344561188
16.123927781255368,-0.4542342703253839,-0.1723431274398148,9.822444575788195
16.132781945013317,-0.5525842970565741,-0.15271592981192156,9.853384997195182
16.14388183765343,-0.6755877511502089,-0.15097357294403665,9.844369899438398
16.152777954922136,-0.7592778757187353,-0.1613882356241411,9.846595587916779
16.163836115616903,-0.8552454303248452,-0.17885317416746835,9.818251958958049
16.172773776652612,-0.9673736125595976,-0.1724494674576244,9.830745906082209
16.18379042711582,-0.9555904235169064,-0.16342453803726673,9.826786973193022
16.192769541324985,-1.161572827350802,-0.18659312452685609,9.824035297837787
16.203744726355318,-1.1974805774951784,-0.17312464194226476,9.852551073107502
16.21276508875661,-0.8889722240410354,-0.16754372761024391,9.835700255179145
16.223699246692927,-0.6440053427639826,-0.1563480098402118,9.8276069234859
16.23276056887204,-0.6289189190376533,-0.16639173425033235,9.831077741309155
16.24365396472661,-0.6638161695767485,-0.15625938411130408,9.827440797114539
16.252755962194005,-0.6937326744175796,-0.14874626352828318,9.821547396164984
16.263608640310988,-0.6157915352358669,-0.15105658001077404,9.841929089001187
16.272751128575194,-0.5371821822149965,-0.16204861616502492,9.839648007346035
16.283563553419334,-0.42505788171574393,-0.16613101723026297,9.842789709945734
16.292746339095526,-0.3291808082337967,-0.1614402183352711,9.845065679749025
16.303518524402243,-0.2115563376506401,-0.1511324525090375,9.845209441281975
16.312741411537292,-0.15127749467917548,-0.15180915927378258,9.832448918644332
16.323473621939822,0.015845917873336248,-0.12776102071233636,9.85111854814164
16.33273633461415,0.12507078365271465,-0.11809918255254463,9.823229320587398
16.343428839155358,0.20303966113680474,-0.13748803664067735,9.847948895476065
16.352731130953597,0.3528533773774571,-0.1166978560431149,9.837621677966414
16.363384094857324,0.49631988253561454,-0.12964828462314276,9.84729661910851
16.372725868812537,0.6029852748411627,-0.11438693179709615,9.84900203687956
16.383339469234016,0.747021396288254,-0.10705015642104487,9.850558245732538
16.392720459984012,0.8306080405139579,-0.12755557467268572,9.850261172566931
16.4032949858048,0.8587468112198757,-0.10220767946106332,9.844388084966015
16.412714975759652,0.9685928013729177,-0.10604696596063418,9.858465997731711
16.423250606552603,0.9804650763536309,-0.11696725789037316,9.84582124343051
16.43270942370207,1.0271973146934401,-0.09365029333249474,9.856937742593377
16.44320630717572,1.1003669412641284,-0.10748701107915881,9.84858407069227
16.45270365522914,1.1540534748542859,-0.10241058337401825,9.859428485167909
16.46316207881903,1.2036317005554893,-0.1026766074949007,9.86158451926201
16.472697904149868,1.2993472795371055,-0.09228899479628934,9.85686261981571
16.48311787284359,1.1383764389480608,-0.11774723466717373,9.854051006193417
16.49269199364663,0.7817916657437928,-0.12194467446057027,9.85101519069947
16.50307381151753,0.6591617534612808,-0.11211133460329842,9.842689863773442
16.512685982875453,0.6732200922434637,-0.11575826217822455,9.847028012034006
16.52302994941914,0.6209041297760021,-0.12750575513869145,9.84841809035339
16.532679896912587,0.5821739170654168,-0.12387999856713804,9.848043915251385
16.54298596628424,0.49248035341832136,-0.12834477992369156,9.85367752097482
16.552673753294293,0.4051542145501323,-0.13852114511969515,9.848910999447304
16.562942230497935,0.2412170373082047,-0.13185767544704555,9.856230093113274
16.57266754929521,0.113593454356916,-0.1539285794175125,9.83363573542897
16.582898564371668,-0.017799441544420647,-0.12067049824875474,9.84771562474059
16.59266126520377,-0.06250164775230369,-0.13523062181704895,9.843099306905644
16.602854991184433,-0.24577155992320096,-0.1580650235543211,9.846475930127898
16.61265486609778,-0.4412518904726057,-0.13367575685733588,9.831582690864764
16.622811507631294,-0.5016801283236392,-0.1600637252871566,9.83416006151508
16.63264840081374,-0.5504593902868432,-0.16062456263255642,9.849834135858584
16.642768080772942,-0.6593441135809003,-0.16540466761595998,9.826379166594252
16.652641859766362,-0.7613914951660662,-0.14767305892602778,9.838469360101177
16.66272472299013,-0.8890492820534694,-0.16260158178638137,9.837786526660626
16.672635226161116,-0.96731230328067,-0.16374319668139778,9.834036826757407
16.682681403463825,-0.9770512587448036,-0.16561362297742416,9.827261917152937
16.692628401367475,-1.1921832220120014,-0.1720838893839189,9.832619983529211
16.70263819018304,-1.1617562969153046,-0.16859875275871883,9.833771546168188
16.712621658851933,-0.8622804539936386,-0.15960624532052659,9.84308943648154
16.722595153763415,-0.6416536598388104,-0.16179893297538384,9.83971770801742
16.732614747581547,-0.600937862775827,-0.15784812042879628,9.832741557773263
16.742552075057333,-0.6549006217349436,-0.14908598453637445,9.835616202169078
16.752607896011217,-0.6607806889904,-0.15145895973336426,9.829448365938742
16.762509039910206,-0.5883688570610863,-0.14496353201900425,9.847475756204092
16.772600890231356,-0.5191051138958652,-0.17993263834858986,9.840498932797134
16.782466177316124,-0.4531470151028106,-0.15428859911905407,9.834902911341102
16.792593670775325,-0.34297754136529474,-0.15572495049835225,9.838530716203485
16.802423260596996,-0.2671731006782521,-0.15203603478400152,9.858013793263071
16.81258658613148,-0.18674899179504215,-0.15948809437153436,9.835671862444993
16.82238051736169,-0.013699864283204953,-0.12162707738874054,9.860298175598848
16.83257929347261,0.14327842509808192,-0.12141824694482403,9.828701333187784
16.84233778410864,0.19840082646178203,-0.15194776038755178,9.868705993672574
16.85257206959627,0.3064040515470427,-0.11557358226047569,9.84506143199015
16.862295115575616,0.4859479170322269,-0.13129615425532437,9.848457110464611
16.872564609541836,0.6081560620283749,-0.11661595462547635,9.838933364175844
16.882252502295895,0.7637240581468299,-0.11438451092328464,9.868697930910686
16.892557284925235,0.8565302821601635,-0.13068606934615143,9.850727469802417
16.902209931565924,0.8934535681837728,-0.09677083237177236,9.846752270752432
16.912549787754312,0.9509594428376623,-0.10901792100238988,9.859926823329396
16.92216748885565,0.9938339311081905,-0.13211423034869402,9.855372079862233
16.93254226072019,1.0589697539213827,-0.09394753620947696,9.848711812017475
16.94212508690598,1.124364767623077,-0.11042355796159825,9.850712378168403
16.952534701945986,1.1548021543496498,-0.10491795169748172,9.85013670334879
16.962082691692363,1.2357831664788907,-0.08869997196112316,9.853158374304252
16.97252704778259,1.3402391237337528,-0.0929014799100096,9.848176742039984
16.98204043765269,1.102755275041212,-0.11456251359569976,9.852522888706343
16.992519236404785,0.7596165489449576,-0.12386309131541584,9.84996547885328
17.001998239553483,0.6723184178472926,-0.10146631043933847,9.844286665858048
17.012511531099683,0.6311800620547137,-0.10931603736936231,9.856263148504192
17.021956048613674,0.6215132640522723,-0.12473596463323887,9.851126389565563
17.032503715305403,0.6177893402317814,-0.11750630201614555,9.851754338636798
17.04191392775609,0.47304492197094705,-0.13957767388622047,9.849380032639234
17.05249584830205,0.319477544924994,-0.15386046503157058,9.843406831747023
17.0618718274384,0.2207589097204257,-0.12282873579111434,9.858812578305152
17.07248786646556,0.13635355123631226,-0.15212351554834153,9.826239861255821
17.081829809607697,0.028432002079531758,-0.1273152332020355,9.840612259512545
17.092479765182205,-0.054890666613102046,-0.1369313362154933,9.833101020966312
17.10178784666946,-0.24474426498010307,-0.17339777541132828,9.848900689763566
17.112471860730142,-0.42806312949778624,-0.1548703734962461,9.83065214217626
17.12174588429109,-0.4886563651074844,-0.1647616974890999,9.826985176092968
17.132463663379873,-0.5419422445131975,-0.1612232679460904,9.851259586718772
17.14170398619892,-0.6590395494472022,-0.16063871439027783,9.838107458611619
17.15245559822894,-0.736524739878475,-0.1561667727459832,9.838605429575479
17.161662076875732,-0.860835506991311,-0.16621097938768473,9.830354586437918
17.172447297259623,-1.0296522259489513,-0.17853025594574393,9.850459845137024
17.181620295482766,-1.017390206337506,-0.16717242344003863,9.827346441896498
17.192439154699567,-1.1753466942984456,-0.17050132375145116,9.826661895536274
17.20157860363068,-1.1703086367873212,-0.1839591166031749,9.840352663876727
17.21243093205499,-0.856300307621009,-0.15836790093592287,9.84528165409871
17.22153685903537,-0.5692312388846029,-0.1666915889865526,9.834422164091523
17.23242254785426,-0.5697350731155569,-0.161335586628502,9.83806002520019
17.241495248724526,-0.6322456778027679,-0.15427742020889187,9.84910923958518
17.25241422539085,-0.6999921526971352,-0.14007715041514635,9.821687132826797
17.261453689966064,-0.6450673457992435,-0.15288990341713313,9.845583530672416
17.272405891285462,-0.5418929799828576,-0.16263231561654617,9.846637132683588
17.281412145979925,-0.4305657729365945,-0.14231724756826059,9.843500261960164
17.29239738521802,-0.36626652957434264,-0.1581233129053676,9.827864979848123
17.301370528172374,-0.2832215914089324,-0.14988160878460094,9.854446046796884
17.312388986696998,-0.184459910686048,-0.14328453842282238,9.82689422956657
17.32132900278935,0.003165901302803253,-0.13356413673228248,9.856865722315607
17.33238045116597,0.16352665612064313,-0.10921889403425838,9.812815462149166
17.341287508374304,0.21551693530265012,-0.15239801805826916,9.856335852370439
17.352371798479044,0.3008781902077201,-0.12422372172007491,9.83673025267684
17.361246094363494,0.4614658336887744,-0.13099145593976239,9.843053806804924
17.3723632141727,0.5756872934882213,-0.11969243983842816,9.841175554530853
17.38120468509338,0.7854751069133099,-0.09914614851357001,9.8652454168103
17.392354529531865,0.8681855100393236,-0.11066980596075768,9.847060224931758
17.401163333116877,0.9115531213360699,-0.102961160875493,9.836567801835436
17.412345836286093,0.9878548966846455,-0.10116243192147276,9.861468261714812
17.42112191081649,1.0169879824846217,-0.11618834239893083,9.845191553236857
17.432337119310123,1.054980618263958,-0.0987776698886412,9.857542499142983
17.441080607023117,1.1135381036168686,-0.11093789009380235,9.851233507238868
17.452328395643736,1.1765331094895275,-0.1034357533379621,9.861780712991612
17.46103933795582,1.2493014133534912,-0.09244492378978078,9.849654958972458
17.4723196031424,1.288250929672513,-0.09625810764442502,9.856813302954318
17.480997998155615,1.1172096761844066,-0.12217545982473567,9.851985180539529
17.4923107595323,0.7781479422573083,-0.10639181196021923,9.840866151343869
17.50095684192346,0.6589304094443728,-0.11394751328688611,9.841342126599656
17.51230201830845,0.6451317292245946,-0.11391899675067722,9.858368457741523
17.52091563112781,0.6116150146343791,-0.13397033483350249,9.838002482662302
17.53229304877614,0.56580141645888,-0.10002732624767165,9.84164502222502
17.540874436498434,0.4901079922177655,-0.12274578055269329,9.8495125819557
17.552284182268988,0.37870968701404906,-0.13853821183660148,9.845732996478077
17.560833419714136,0.2245247527675208,-0.11436830559669642,9.855021488298522
17.572275325390066,0.13740296898418689,-0.1359580859977149,9.830001531397823
17.580792257480496,0.003912157273454876,-0.12763971788942471,9.834077181015815
17.59226641121335,-0.0981395915400825,-0.13755773214929096,9.849290133870788
17.60075117208111,-0.23077419175721098,-0.15934507834117498,9.85124707731785
17.612257500793326,-0.42525141278997836,-0.154953051952164,9.845550890116284
17.620710047052572,-0.49136450513343416,-0.1591967212593022,9.833014678993075
17.632248411543404,-0.5683450892483274,-0.15120667066881213,9.849361472030497
17.640669141751115,-0.6655024095164369,-0.14959966006046982,9.836206803045917
17.652239448965492,-0.7381874826985514,-0.15544839671786143,9.82801152220566
17.660628123553536,-0.8764168496553982,-0.17224695780501775,9.834029487506664
17.672230327462795,-1.0310411010119518,-0.1762565883424939,9.842519893103816
17.680587080102004,-0.9701824788257156,-0.16569060908721248,9.823446642131895
17.69222129316245,-1.1377976470410485,-0.17490267996842418,9.827125447011452
17.700546161129914,-1.1643009065176981,-0.17255989828339022,9.841176936625747
17.71221227762651,-0.8756274485932268,-0.16181725475485154,9.84053283838014
17.720505197817737,-0.628851946910257,-0.17328750480519198,9.835983893293985
17.732203236367102,-0.5553730064275307,-0.1521921120051897,9.846104890641387
17.740464133723616,-0.5246056038826865,-0.16093716325103477,9.84005250303094
17.752193996126646,-0.708036781516166,-0.16413719784007005,9.830838007468724
17.760423238033624,-0.721092535361592,-0.15601740127432936,9.840949616123345
17.77218486943093,-0.6006389575822211,-0.15772691517653725,9.837808129450748
17.78038229152431,-0.4613237641956451,-0.15211003572586823,9.84810249399403
17.792175671682745,-0.35832201135574415,-0.16911313654367427,9.82086806674655
17.800341481361272,-0.2534419936250793,-0.14843032016394708,9.849090147548464
17.81216661703864,-0.16125789959630374,-0.14889612933770868,9.843354704537363
17.82030055648256,-0.019370489820957734,-0.14901007113034745,9.861333052450924
17.832157293914282,0.169852045282027,-0.1160445610465084,9.827091445553092
17.84025963328991,0.2419151347487787,-0.14851203642546779,9.855255357245506
17.852148228736883,0.3089847423494432,-0.11776786058693622,9.834267798280381
17.860218790018,0.46923292100191083,-0.1366183123504416,9.84082159837689
17.872138898822854,0.5872633336386902,-0.12113401584779142,9.836306344037489
17.880177937927314,0.7652720451469365,-0.11604870288564184,9.851240575324255
17.892129685413526,0.8615684258227343,-0.13264235678722486,9.854970225653087
17.90013714501675,0.8845816837426864,-0.11120812062868828,9.850607841001864
17.912120463198505,0.9718286176408216,-0.11411375892433433,9.852819278789454
17.92009633588079,1.0555357515539563,-0.11356828436541895,9.854689699743426
17.93211115327191,1.0523967321326047,-0.09366136233848085,9.859381585837586
17.94005546557392,1.130784227890083,-0.09236241125146197,9.851625853185396
17.95210196865711,1.1939412068175048,-0.09899004478513566,9.850770761692798
17.960014716010697,1.2369988414193083,-0.10107933862052575,9.853017937909467
17.9720925881267,1.3357106745372544,-0.091538687731006,9.862746702751968
17.97997391082115,1.1118037961053668,-0.10946602020652224,9.85419131759489
17.992083334603425,0.7090681098080791,-0.11551887380086566,9.851666771440376
17.9999331072777,0.6132714482615641,-0.10960645513380762,9.844391602241835
18.01207416935652,0.6555931139459088,-0.10429766710822573,9.85748133183447
18.019892373666455,0.6193028666349141,-0.12756505881569088,9.843814371370142
18.032064905768717,0.569959555627453,-0.10455755516850204,9.848505905142803
18.039851518657866,0.4825965540278683,-0.12122617196932688,9.861808625757968
18.052055646460882,0.3522981361270171,-0.1334802185650534,9.829207975765083
18.059810839431492,0.2340784179744461,-0.12013272535767164,9.854981695349943
18.072046276311767,0.15870338832321002,-0.14151605218919552,9.839249579517777
18.07977005416424,0.00034418827247382903,-0.12571096764802223,9.839325463510049
18.092037003294685,-0.07283731388358197,-0.1266389381356485,9.855734628807536
18.099729328991465,-0.25019782883813635,-0.1666673119256717,9.84911217068235
18.112027707066346,-0.4422953459676039,-0.14700891765915206,9.830946884493988
18.119688516082373,-0.5042526553493075,-0.15712846780751885,9.817793369423404
18.132018466234165,-0.5671543420837629,-0.15155763588434976,9.845626293693234
18.139647686985725,-0.6756808010812699,-0.1627144225597051,9.826129554611331
18.152009116312144,-0.725808816698502,-0.1651128812034899,9.830071767356632
18.159606993826113,-0.8444880120197873,-0.15572629726034237,9.844994482563486
18.171999717701272,-1.0102156492335177,-0.16039009571087479,9.828098461275157
18.179566228291232,-1.0227471523976652,-0.1763015727979503,9.833226886761416
18.191990412451478,-1.1802599862115746,-0.1781315142065795,9.8324818580404
18.19952533702222,-1.1653957507600423,-0.1711933439680864,9.831561800419767
18.211981091068864,-0.8791242867959032,-0.1672916011953063,9.837809696015187
18.21948462679072,-0.6119857095160561,-0.15365148112498786,9.829846526065104
18.231971911290156,-0.5500671320827969,-0.16576573193015903,9.833887888846265
18.23944387618107,-0.6198847110576854,-0.16145758272997543,9.840785114446877
18.251962498547538,-0.6521922856255,-0.1432937602396455,9.82102251315691
18.25940313229148,-0.6411134071016241,-0.15857765990587758,9.835272014892798
18.271953170352663,-0.6049503877393575,-0.16785098667349782,9.835141971415636
18.279362284256525,-0.4847240956603306,-0.14635171512371772,9.83074788988226
18.29194395152883,-0.36242310035469794,-0.1455880052754508,9.831273682832649
18.299321452641312,-0.2430831525054562,-0.14904343197092013,9.861325642028358
18.31193464014068,-0.15632604077302148,-0.15318638928701223,9.832779208223995
18.319280739998053,0.019250367945803298,-0.13396490318544685,9.84632047049661
18.331925267270705,0.1489058814133696,-0.11497918095345815,9.820216794443505
18.339239904022048,0.20265861056524628,-0.14014618925561756,9.868601353978699
18.351916065012563,0.3180718162206702,-0.12003362577818971,9.840961647602553
18.3591990930915,0.4754933952654752,-0.14864631629278538,9.853252636738242
18.3719067938572,0.6113522642203193,-0.12294157185317936,9.841638961867371
18.379158214865207,0.75516738060054,-0.10443419728320649,9.848668588229462
18.391897542015478,0.8877486350019578,-0.13344227022761587,9.847529034656015
18.399117355102945,0.8930523288427781,-0.1013748568237623,9.848479553167058
18.411888122482072,0.9494670100396996,-0.10341405511611956,9.843458852429093
18.419076442646713,1.0375546751695228,-0.11060078495965403,9.867260485547593
18.431879044477732,1.064602079329614,-0.08860440746708992,9.85172400820946
18.43903563703882,1.1383140186597176,-0.1086276495219374,9.845942596857242
18.451869729197902,1.1859127430334042,-0.102183259638693,9.868659441909093
18.458994777261953,1.1782057026826684,-0.101209249752309,9.853181765403194
18.471860653469662,1.3497084050074433,-0.09119421406798849,9.85632492274121
18.478953979721833,1.1594715424047302,-0.10520917350251871,9.847747255017074
18.491851318088923,0.7745910228590042,-0.13001069997601597,9.840793834117417
18.49891301467842,0.6319056975628262,-0.1091512375042018,9.837346128151609
18.5118421803336,0.6053321709626232,-0.12174746800980232,9.853147677823145
18.518872053862566,0.5619203610728856,-0.1377988347452864,9.838166489674817
18.531832946806787,0.6087054965747946,-0.11571079515985275,9.844505896675125
18.538831125419865,0.501247756091509,-0.125731470230661,9.848045357769987
18.551823811280066,0.3456762200436549,-0.1375783859407849,9.845899386328446
18.558790254550722,0.23130661437208047,-0.11582690920269674,9.865797768596872
18.57181465800046,0.16349438973081717,-0.13840132795596868,9.834057802401974
18.578749217462665,0.027147752233565327,-0.12334173204701543,9.836213337690062
18.591805559212652,-0.07684538526250323,-0.13537144573108825,9.842672422403375
18.598708192390657,-0.23272715511746664,-0.1641859375380513,9.845153790724172
18.61179640021418,-0.39687190101153663,-0.14864915495158915,9.83295159236225
18.618667233305402,-0.4714334953930846,-0.1627458374555204,9.824310634570661
18.63178731180005,-0.5409896742051753,-0.14796192168984465,9.839681626150037
18.63862621652532,-0.6867843737499096,-0.1451771189110618,9.834182033965458
18.65177822541347,-0.7521810275951387,-0.1660851177517142,9.82427457132678
18.658585145968217,-0.8895966595888766,-0.16080183693791147,9.83161687591409
18.67176927575715,-1.0316877292792914,-0.16450362432421903,9.8320463023053
18.67854398256765,-0.9524259207825811,-0.17513810692327175,9.827285272691517
18.691760238758807,-1.147988159891301,-0.1827931273025235,9.837081527375997
18.698503008088696,-1.1930977067485422,-0.16763107519317796,9.847225092449987
18.71175119615722,-0.8748080909164667,-0.167863540884754,9.839441038078311
18.718461863784363,-0.6191764414851311,-0.1622499695373923,9.83462768987893
18.731742239470528,-0.5577738038256638,-0.16227551478527058,9.842581937330298
18.738420611983948,-0.6426719622561552,-0.1637523256429439,9.839579459998758
18.75173318793246,-0.6076035151702353,-0.149434549576638,9.83648736498411
18.758379520445093,-0.6195062747444054,-0.16241019150254193,9.828710179984359
18.771724319170126,-0.7223204567052204,-0.16114360880356549,9.840233489101351
18.778338361009347,-0.5088295870731842,-0.13982101262462981,9.82997535212663
18.791715425310464,-0.36541526404641766,-0.164552891407819,9.827394311486774
18.79829705511331,-0.2211686836122135,-0.15262459076076423,9.849700104938963
18.811706585067267,-0.14571163771096682,-0.1369383919115006,9.827669940559776
18.818255841895553,-0.014450249801932843,-0.12138037813245743,9.85208848878508
18.8316977644982,0.11562439461491035,-0.12010458355030099,9.819063005945358
18.83821458860541,0.21963931335179274,-0.14335135716050112,9.869002541813735
18.851688840709322,0.3156621139927903,-0.11926706217635592,9.851961844307748
18.85817323123174,0.45650980930564583,-0.13488294334592565,9.850732696962067
18.87168009059759,0.570628478712332,-0.12513416201565186,9.841991452960368
18.878131800884486,0.7640141317871978,-0.122064980849757,9.852821131757997
18.891671287248087,0.8682710696334353,-0.13104582945368376,9.85388972333375
18.89809050416502,0.8833454892783724,-0.10305895232387381,9.839724700347661
18.91166261899519,0.9490623422851927,-0.11496586862082937,9.85310193318554
18.91804908365471,0.9868964055430309,-0.11563588834869783,9.84919145569936
18.931653925704524,1.0693472718656019,-0.09935611312165465,9.840698160529358
18.93800752192441,1.1183436253633243,-0.10599896905398908,9.848561418227977
18.951645239001177,1.2101746502688695,-0.1048976954883404,9.855340863866305
18.95796607167484,1.2272076128352702,-0.10872152547829408,9.86889447829305
18.971636576646688,1.3224221815880006,-0.08831771012025456,9.862906139231697
18.977924452142457,1.1673067141285642,-0.11286580617549538,9.85546549620311
18.991628024208357,0.7966082440277602,-0.12285915311286118,9.858731013324558
18.997883002361053,0.61416122680338,-0.09769724048268333,9.830365203385115
19.011619522666614,0.6288558475189775,-0.11634435300893632,9.857084108189262
19.017841285885726,0.5951261481218819,-0.13471154682057365,9.846253069701117
19.031610903426547,0.608975530227227,-0.11556166913529752,9.844589682120084
19.03779964687856,0.4768047625506804,-0.12479795022693542,9.848202674890073
19.05160253483616,0.3611482413429622,-0.1429027549115535,9.841277865463558
19.057757847388004,0.23282331369992085,-0.12569465627419715,9.862632125055134
19.071593944365077,0.20098874667285038,-0.1413701087878524,9.835119581697809
19.077716183181106,0.047579017205832574,-0.1217185916335492,9.831318429999559
19.091585700511036,-0.07064035265545025,-0.13803396024414458,9.847117007845961
19.097674501154223,-0.19590672161199124,-0.17553314092142314,9.843330818264162
19.1115773394678,-0.42801953572479934,-0.13998084894068372,9.843304867179135
19.11763267760728,-0.5202990702555103,-0.1624036871270417,9.838211487738262
19.13156910762998,-0.5494009860325734,-0.1552469788991733,9.845268647477962
19.137590802866036,-0.6545235896897669,-0.15153206244246828,9.826997504896486
19.15156081858114,-0.7356222581223403,-0.15721913383342107,9.839702041609058
19.157548892562012,-0.8047276897526386,-0.16931406021654688,9.846870041308282
19.171552560978245,-0.9702752845124618,-0.18529848151657188,9.831368672891028
19.177507022299576,-0.9972013763667175,-0.17163767005274208,9.841799299475449
19.191544542605424,-1.1233874284934042,-0.17029559706311784,9.821902366141643
19.197465046497598,-1.1899420933916793,-0.17760213315200343,9.836297788232853
19.211536295539165,-0.9408683269635316,-0.1583959471388396,9.828212361646813
19.217422973545048,-0.6509827492858951,-0.168058292931666,9.838894988677998
19.231528371979984,-0.5384410465149254,-0.16374292623743672,9.83383535255568
19.237380813132496,-0.6202172874312405,-0.16474083066843598,9.834757145714148
19.25152039155092,-0.6814409269157005,-0.1421960532589174,9.814995611580994
19.2573387032957,-0.6550542312932084,-0.14018965407852918,9.83477821985137
19.27151236489978,-0.5660302124988665,-0.1600527247368333,9.842335268080591
19.27729651482055,-0.5037338867367264,-0.15874445963015135,9.84013260755386
19.291504386684245,-0.3821342395861888,-0.1626737106326789,9.815122504315855
19.29725415497303,-0.2790430768788806,-0.14494037816171132,9.857332584537287
19.311496537044057,-0.16500572918922504,-0.14484799865147913,9.84111286591774
19.31721194102458,-0.030022457079251948,-0.14823746594582568,9.855651949319864
19.331488795080094,0.11366320941948978,-0.11914411085998662,9.82915458880486
19.33716953287048,0.19144700775344858,-0.1439494332106842,9.84623657818842
19.351480977607462,0.27340803542223086,-0.13478166698745941,9.843742000619537
19.357126963938647,0.44381149941404824,-0.1352900234233596,9.838834126070353
19.371473167574788,0.6121821391103848,-0.11513543291365924,9.851901363403503
19.37708446085666,0.7653597267235055,-0.10665432915684833,9.845013532950738
19.391465569030288,0.846581771429255,-0.1174484553615143,9.857548750271063
19.39704185226351,0.8406547853393169,-0.10862634751351904,9.847976695729212
19.41145805694657,0.947876455966549,-0.10506102376743494,9.85262229802684
19.41699926131372,0.9826323585532419,-0.11542800199691966,9.849579314844403
19.431450525809502,1.0571343322865936,-0.09524629602061198,9.847386721559666
19.436956562544744,1.129781117942114,-0.09587905038157363,9.858433773773134
19.45144304005936,1.2119245120426794,-0.09213388724202094,9.85579910785142
19.456913822741885,1.147356678771953,-0.10789723849815881,9.860689851548287
19.471435664788615,1.2797540459239933,-0.09627380013474052,9.853143486565632
19.47687106284341,1.1950376059254788,-0.10984294595355437,9.855676660797263
19.491428281239212,0.8678457343810513,-0.11538887312062095,9.855359832259213
19.49682814317936,0.6606004798483592,-0.12115565474806889,9.836197003910486
19.51142112611782,0.6495436848790453,-0.12340367885998828,9.851516102298083
19.51678518522238,0.6187105469104386,-0.12782766935842726,9.85750084066375
19.53141394365848,0.5949444453234216,-0.1195581871919597,9.832860883691838
19.53674217797944,0.4793726265066173,-0.12020140534136492,9.860945002490777
19.55140680253403,0.3762277077749422,-0.13032433764566506,9.844368282505126
19.556699055370206,0.267879203361166,-0.1257195450353942,9.85699527521245
19.57139974180723,0.20339553688105924,-0.12946216966885235,9.830968028149199
19.576655884584934,0.03251091946543337,-0.1464380477778043,9.827249957502588
19.5913927686961,-0.040102848137920755,-0.12582392199344822,9.847874934846267
19.596612683068194,-0.12430683854389213,-0.16029288833934044,9.844932042664068
19.611385821380452,-0.3907965775142349,-0.15695818958959232,9.851160476446802
19.616569409617455,-0.5098769380838792,-0.1553941128774037,9.827582114179865
19.631379082469994,-0.5582810352749821,-0.15490037648816982,9.840800895589304
19.63652595077432,-0.6205854763858348,-0.15445489444554683,9.821061443509691
19.65137235534369,-0.700034595583391,-0.14546121483831564,9.835202131143673
19.656482644530765,-0.8176933987924933,-0.1737983245836479,9.843875786438582
19.67136567411615,-0.9427504586069755,-0.15371394696378662,9.829480924406242
19.67643897876338,-0.959762054718965,-0.16536708473987982,9.828471607847096
19.69135906011779,-1.0751954319627133,-0.17996641466472318,9.833239927390716
19.69639545663841,-1.2024225097910852,-0.18059819711885652,9.828583159559335
19.71135249555221,-0.9582555790172735,-0.1616866312025514,9.830690055402444
19.716351683987188,-0.682611503908843,-0.16309371668621578,9.830747471421157
19.73134621125419,-0.5578206803713449,-0.17051413769815904,9.83835540964194
19.73630782103059,-0.6152418401710494,-0.1610511371479058,9.829546183235319
19.751339786430147,-0.6827782221563694,-0.1457643199468368,9.820348320915565
19.756263999335047,-0.6254921964079728,-0.15885213961453967,9.838624491921301
19.77133354527572,-0.49487538778067125,-0.15970852309014888,9.83388585789503
19.776219934006548,-0.5039616993088868,-0.15985549351869574,9.833673220352482
19.79132730015417,-0.4641291781802226,-0.1600544688606846,9.823968943367682
19.79617595182551,-0.31761624448279624,-0.15968442535768734,9.850234758460314
19.811321181313012,-0.19401079666253657,-0.13076384786289993,9.832178171237546
19.816131786688747,-0.056228900019939985,-0.14611949375060357,9.843945236118396
19.83131521184308,0.08947095748842245,-0.11509343818312821,9.842529060011241
19.836087454556807,0.18270519860755025,-0.15241131810879077,9.840600922484834
19.851309321251378,0.28823052027109336,-0.12086089599668391,9.852990323361942
19.856043225626518,0.4075615971065031,-0.13206078752500544,9.827561020647144
19.871303536766604,0.5276336899606769,-0.13336632935329612,9.859713050233044
19.875998738095785,0.6757955082627248,-0.10988857653371074,9.847162247464263
19.891297669983814,0.8583310299886286,-0.12360513196890521,9.856781546572817
19.89595413814191,0.8798347453465613,-0.11660879935297094,9.845518311233237
19.911292048435765,0.966246496658452,-0.10860588047041705,9.85737822587763
19.915909545213843,0.974174933550272,-0.13094626948448287,9.850556618041074
19.931286706340213,1.0066799244019355,-0.10985151982585482,9.852271573130624
19.93586485694337,1.0569442110069274,-0.08681984299806723,9.853895968197321
19.951281185931915,1.1473880408873858,-0.10377163444498856,9.861709682009069
19.955820112995298,1.1796017177249436,-0.1001223324729141,9.85494499631233
19.971275976595145,1.2823284291456758,-0.09435521499300083,9.85872318477763
19.97577510728148,1.2483076003490667,-0.11382206087744748,9.855768982830552
19.991270682439726,0.9222007606392538,-0.11885977538627786,9.846351472605905
19.995730033483284,0.6506413256146205,-0.11171419835684954,9.837946361621876
20.01126564608036,0.6081548129777947,-0.11614284057552142,9.846828592762787
20.015684903476142,0.6022798807628585,-0.13324205116591856,9.858107752266912
20.031260688606462,0.6386157437747056,-0.13284822332488241,9.837797170935351
20.03563970061832,0.5585703819742536,-0.10346899191610937,9.857764798321991
20.05125578657585,0.4149843800722592,-0.14727724306299245,9.849750406039016
20.05559430701087,0.22806964871098842,-0.1337368889045378,9.839335390011803
20.07125105219913,0.19976424442734936,-0.12387684514880054,9.840441816557252
20.075548811971043,0.0701828273588319,-0.15468655188505898,9.834477473009365
20.091246336104216,-0.040358405590442466,-0.12547896715357304,9.845746070469025
20.09550322204801,-0.12059580316740824,-0.1462700544281496,9.84594713397983
20.111241787685326,-0.3565782134448217,-0.1387541028335331,9.836636249560017
20.115457501261904,-0.47403085401495726,-0.15315534393223518,9.827573992982163
20.131237460926084,-0.5296175994082201,-0.15332714536703,9.846115717901109
20.135411678855437,-0.6071068140846363,-0.1742326133247692,9.82707269855731
20.15123310599849,-0.7260442014819197,-0.15664311490743119,9.82980816340051
20.155365662111812,-0.797748768748513,-0.1797279928079244,9.830039396178845
20.171229047502994,-0.9265474446760003,-0.1718060992318933,9.827538455043072
20.175319654542395,-0.944475139460234,-0.1649982104594905,9.83533903616337
20.191224941194292,-1.0234770906896593,-0.1654612535966101,9.826232055936561
20.19527337775667,-1.2117718775534283,-0.17550210946473005,9.838533001100743
20.21122099914505,-1.0545937592339318,-0.17106993310460594,9.834853583081207
20.215227019195,-0.7455499245914988,-0.16808770497756673,9.84064739916587
20.23121722953302,-0.5614179313759095,-0.16461968651109146,9.838683964514741
20.235180542619215,-0.6070609194801296,-0.16715330408405368,9.82968547060187
20.251213535619893,-0.6634646260941185,-0.16196804841446708,9.83242948028429
20.255133939959265,-0.647283458730284,-0.16724005046777304,9.854049563587203
20.27120997361006,-0.5542989425228835,-0.1510672177713468,9.823812086175039
20.275087173458306,-0.5136038962079461,-0.1473795361263425,9.831260253796584
20.291206641150968,-0.39900761876389407,-0.15683122141515857,9.835418798745096
20.29504023667415,-0.28407062266955774,-0.15753373501067153,9.857073420584694
20.31120336514978,-0.2054462129741398,-0.15799723479238872,9.82543654026407
20.314993189665042,-0.11574485707043923,-0.1334348264755591,9.850506351997076
20.33120022114878,0.08521691205966164,-0.12452703140694234,9.841737623357444
20.334946019169024,0.16405021217165347,-0.1489896176333867,9.839033440861664
20.35119727574921,0.2661350390420908,-0.12528677006854147,9.85734226988264
20.354898631837976,0.388028408710897,-0.12691714957456288,9.824965092592494
20.3711945019233,0.5223055496606944,-0.14204147046487267,9.853343608578497
20.374851152850724,0.6744423790585297,-0.10463812941419379,9.836684224844271
20.3911919007697,0.8311000304262893,-0.11409245245925861,9.853105737370772
20.394803538211026,0.8365018395479608,-0.13349181712214706,9.85129962871759
20.411189329353817,0.9256594474668395,-0.09469078435374177,9.848163300446085
20.414755647741732,0.9445650667758447,-0.12968925316939706,9.839712456217931
20.431186947255917,1.0292966240247245,-0.1110408604622869,9.845072424330715
20.434707733219515,1.0744327944208798,-0.10002811512029135,9.856961743257449
20.451184700164394,1.1857700791851862,-0.10765981958579472,9.845458677137016
20.45465970673722,1.153234971258166,-0.11032798892933986,9.851422159844704
20.471182687673004,1.2509447690648727,-0.09645453538066842,9.863355983799153
20.474611352964427,1.2320413727360937,-0.10306227008773797,9.855165109480346
20.491180839660043,0.9521658185234588,-0.10955073398150962,9.84478656517443
20.49456298039417,0.6818306928481889,-0.12364255631098303,9.846737818272937
20.51117919220283,0.6295478524832222,-0.10446168540379146,9.845310202891001
20.514514285229158,0.6341388479357585,-0.10121845056602119,9.848341751321367
20.531177584408283,0.6138689467548265,-0.12207063865004583,9.84912092462237
20.53446547806119,0.5887941811461845,-0.11013077164329768,9.854013619302568
20.55117632921822,0.45021003743195676,-0.1405482499417108,9.853276278516843
20.55441655172697,0.2923363255872376,-0.12585323196278647,9.838737170927804
20.5711750410101,0.18246204747219277,-0.11774858642145246,9.854751351024277
20.5743673087029,0.038945436222723125,-0.15937529364318934,9.834557273674683
20.591174089875352,-0.031464237903908676,-0.12239831416093924,9.85008301265195
20.59431801179235,-0.0795052081223548,-0.15542710314848457,9.844708997834548
20.611173274235547,-0.28119961950303646,-0.16208812267821857,9.842692237722135
20.614268521408686,-0.43345397684077996,-0.15368069142069563,9.83561853053968
20.63117260020943,-0.5020514637355489,-0.1670760916434589,9.837900358850895
20.634218747809268,-0.5915979314991369,-0.1639998193247095,9.832873846449033
20.65117224684682,-0.7272413260578396,-0.14876035357056333,9.838653247136186
20.6541689413363,-0.7724543732813872,-0.16172554495473582,9.824634674236293
20.671171951340003,-0.9018857141073292,-0.16139797011237603,9.825529699221743
20.674118722940296,-0.9764128209607222,-0.16243955834601614,9.846805509980392
20.691171871977737,-1.0675862971347927,-0.17988145055576996,9.832091676415486
20.69406852126741,-1.2147251410572553,-0.1746837292906514,9.823023724748468
20.711172056894892,-1.0809655412449695,-0.16107059476694155,9.82774541224064
20.714017909943124,-0.7542746633045357,-0.16185443571767136,9.83842201019464
20.73117243698984,-0.5586193542219665,-0.16686927498486626,9.832352081306658
20.7339672272788,-0.5918328503403265,-0.169194131716586,9.844047543231035
20.751172987193012,-0.6748590314512544,-0.16342081799262057,9.829581029542139
20.753916236338576,-0.6475686825993084,-0.1559851128536527,9.842278903789964
20.771173667456242,-0.5726836498992145,-0.15791039410176635,9.828628102970526
20.77386514418282,-0.4959409904020371,-0.1584714392411813,9.834416751667524
20.791174829254924,-0.40207031828070555,-0.1699214137696294,9.831639737341801
20.793813735753194,-0.15636074418481807,-0.15309785798958048,9.84249809282298
20.811176058445753,-0.1714224405812009,-0.15214339663174853,9.837439006951863
20.813762218733444,-0.3103069160625791,-0.1708101336552283,9.843795307001427
20.8311775729574,-0.09178200613972996,-0.11402851570422838,9.851129399160444
20.833710368473938,0.13125257283146935,-0.13093520360453156,9.837769635382433
20.85117917419224,0.2644153453583115,-0.14985642625015594,9.844655276894535
20.85365832262917,0.41388814688944325,-0.12589369445180168,9.828840829712384
20.871181104110285,0.5992368194075359,-0.12240781395684124,9.849557099039867
20.873605939108977,0.6586198973592483,-0.11668274255248837,9.839923250529742
20.891183227828392,0.789280522354168,-0.12328184805936844,9.847605593336585
20.893553519370293,0.8061427725552571,-0.12745694973772675,9.851564039453766
20.911185701583044,0.9006899958759951,-0.10118290299931207,9.851262391468419
20.913500642664367,0.9916422308271845,-0.11588721947827883,9.851012666214725
20.931188375781797,1.0576556633575682,-0.12367405994406357,9.850593407860094
20.93344760358445,1.0642880057574717,-0.10564798939282656,9.851437120847438
20.9511912978774,1.1002018059008503,-0.09793138184862143,9.851975050831783
20.953394331766532,1.133130799602583,-0.10781218512733882,9.85490243042435
20.97119442258006,1.2324363392914182,-0.1058996587517493,9.860291618140906
20.97334075470101,1.2757504298283386,-0.10927577218917095,9.85033252872292
20.991197920852542,1.0455792510919213,-0.11507465776947372,9.851721721398516
20.99328695209799,0.7095539868218271,-0.1263889779247368,9.852731942226379
21.011201600063792,0.6012486331856898,-0.11701130001268296,9.85308966514291
21.01323281799253,0.5953020786551797,-0.12885491298748963,9.8533423022771
21.031205686900883,0.621367211514651,-0.12863422179632594,9.828068956595162
21.033178503172223,0.6183505243223495,-0.10898285696454052,9.852138622203691
21.05120988054623,0.47983962104811995,-0.1491558950834702,9.8492736825722
21.053123717626956,0.31372929938572325,-0.14129445642065436,9.843820187913677
21.071214466673716,0.19256353352121888,-0.11228095455376769,9.84734897070052
21.073068796550558,0.13379796332707183,-0.15046300805165064,9.823440772680764
21.091219212390214,-0.009797401760834608,-0.11698689239573237,9.83369285263568
21.09301356696459,-0.08596831522604113,-0.15232875990070868,9.842773649752285
21.111224412199775,-0.2854860540851457,-0.16096236576358353,9.836392091947754
21.112957927585565,-0.47060514305223,-0.14452667784410925,9.83169605849746
21.131229835742044,-0.52447558517297,-0.1580140264657358,9.83787296110289
21.13290212182359,-0.5698609101987023,-0.1607619428474227,9.830020174307133
21.15123567292374,-0.6768991111648027,-0.1515473345283527,9.846273123524371
21.152845918381907,-0.738266491013107,-0.15810625242796378,9.826992010330201
21.171241711995844,-0.8942391560155388,-0.1782964964913334,9.824872849218098
21.172789411780045,-0.9880589625070232,-0.16784570214365632,9.84062277736942
21.19124824799036,-0.993281933426279,-0.17336889554637813,9.83484929562353
21.192732584616397,-1.192247725136843,-0.1807755832299227,9.82623085926774
21.211254899033186,-1.114344640843186,-0.16137501667658874,9.840870629387044
21.212675417816378,-0.7966879309205208,-0.1564560805370432,9.830599995385526
21.23126197270021,-0.5836911176193164,-0.16339019408759484,9.836659943584722
21.232617913467813,-0.5778660883433935,-0.1646610412970489,9.836402449392546
21.251269466927877,-0.6657413807382727,-0.15537541087607312,9.822219430540276
21.252560076574923,-0.7185630621902699,-0.14614102486953692,9.845581808735576
21.271277178525665,-0.6485621372295213,-0.15051508100596292,9.83521890466441
21.272501835041087,-0.5124594862446294,-0.15365851843439965,9.836368709312627
21.291285379709223,-0.37798820872005046,-0.13497872544443315,9.832495381873676
21.292443295891953,-0.30955332590073087,-0.15180936661364583,9.849818327771214
21.311293751425545,-0.2035625363577238,-0.1341569910019001,9.844803637502524
21.312384273637452,-0.12652358376966352,-0.14802846950056664,9.850156367328038
21.33130268993882,0.04059125723405182,-0.11267316226499435,9.842122155205754
21.332324924291086,0.14886061116322336,-0.13308266097803012,9.83399625441127
21.35131190755142,0.21333575523845372,-0.1482917371319004,9.851144606854591
21.35226521568285,0.3715021258411294,-0.13143692996642634,9.83367538846978
21.37132165519812,0.5331618617485746,-0.1418537062738106,9.855487560010763
21.372205043753162,0.6156093825120476,-0.10846984596413993,9.841988586575381
21.39133169686438,0.7924188083054395,-0.11341400544148351,9.842608734678246
21.392144363610477,0.826058381659826,-0.12530353204146782,9.872699350144382
21.41134207392651,0.8899164769285081,-0.09759734090365518,9.839100021928575
21.412083486918508,0.9703142318067229,-0.11295746265891284,9.849218859676476
21.431353006909262,1.0072067902945891,-0.11367203095102725,9.854645317633036
21.43202210007134,1.04418738218463,-0.10474492244408454,9.850354663925417
21.45136426180423,1.1020624508921466,-0.09483240867968222,9.84927484133613
21.451960302969393,1.1431343012851742,-0.10436868790642892,9.856800974303335
21.47137609410029,1.2210645417225185,-0.1092573458960429,9.861062255394078
21.471898110643988,1.2926565797009122,-0.11053717330504921,9.841457233344231
21.491388279104797,1.028063902713835,-0.11301443602273391,9.855185837642757
21.491835377355994,0.7241553366155906,-0.1159068227193827,9.83472204017856
21.511400970013558,0.6199166182798724,-0.1174428190337553,9.848076775233311
21.511772091209295,0.6299587429432254,-0.12516685158958868,9.860582113673114
21.5314139871625,0.6634344636405782,-0.13134678953704748,9.836521990917792
21.53170838150298,0.6101946184694463,-0.12034665201145969,9.847064555746037
21.551427687491557,0.47415918357268344,-0.1284396251895727,9.843798976988031
21.55164419844307,0.3299371083322042,-0.12939864071594892,9.840968846072732
21.57144177045685,0.1730937367719984,-0.12411318581287985,9.851867066414778
21.57157965664113,0.10389844597736685,-0.14441337983677532,9.827920642554675
21.59145638499876,0.028323908185279186,-0.11789076981459592,9.84787931815879
21.591514561105768,-0.06248168862733044,-0.13956205262901264,9.846546537126933
21.611471551089586,-0.2784579452765546,-0.168813650080603,9.842363405740063
21.611448782189335,-0.4518117996174308,-0.140783716823244,9.833458815377137
21.631487135423995,-0.5043682447408253,-0.16085270666348828,9.834078877634834
21.63138267740914,-0.5804805411945596,-0.15823435038412698,9.830941363290309
21.651503401225188,-0.6732342263914706,-0.1675965319255393,9.844779405675501
21.651315856160803,-0.7353217826667924,-0.1650988021461399,9.826993388221151
21.67152006015826,-0.8727518164260482,-0.1762808624040522,9.828538753857764
21.671248558465884,-0.9734523465980437,-0.1622688173235429,9.845563271283742
21.691537537067802,-1.0063327651504645,-0.17836196741278915,9.820434429452387
21.69118064349647,-1.2369268508359716,-0.18707463322573084,9.82397733830972
21.71155535233066,-1.1208943018304018,-0.15753569780010548,9.83122557694298
21.71111207408606,-0.8108314258937144,-0.16191590559476607,9.829247716764586
21.731573843765535,-0.5923485730671272,-0.1577970931115475,9.82838473190098
21.73104304808923,-0.5560971600898648,-0.16298947029328217,9.827270079319286
21.751592869377824,-0.6752553485895648,-0.15632420117213905,9.838130436520645
21.750973266230115,-0.7030077319121261,-0.14468035858034795,9.842572626279768
21.771612612047097,-0.6554710409735504,-0.1519099286258713,9.82663693149723
21.77090301302882,-0.5691926952463456,-0.15193397344192847,9.828637933783247
21.791633052602055,-0.42856584053797764,-0.1557429724911551,9.838170727701431
21.790831879876976,-0.28103254801337757,-0.14260788165548982,9.833274905775479
21.811654027283222,-0.15849057274276926,-0.14024462945613342,9.840857758491873
21.810760195167855,-0.11093812817208437,-0.1572475132097091,9.830995306591635
21.83167576523975,-0.03200116545802024,-0.12557726414692585,9.850465585887381
21.830687896071904,0.09086246628652175,-0.12918550188085073,9.828258719577986
21.851698151330517,0.19194657876841992,-0.15211658246944018,9.855578557615095
21.85061479787578,0.387265917223921,-0.12155298279220077,9.825002612217407
21.871721190295588,0.5477693534540103,-0.13562951546932958,9.837598964423933
21.870541084363385,0.6620268002304727,-0.09647348624047267,9.844384007139265
21.891745179366243,0.7528173118495419,-0.1075773184351292,9.848686182077202
21.890466506469718,0.8022212844375061,-0.13982390648323037,9.858159292443059
21.911769716011968,0.8743012227456274,-0.10942615230720384,9.830423574430142
21.910391144859243,0.9824580711739364,-0.11806084353749988,9.852612203186503
21.931795050905546,1.0351836381076955,-0.11128064379226518,9.854958943977453
21.930315179947133,1.0616604623020964,-0.1009927499768854,9.85251415176861
21.95182129282877,1.0872570471333682,-0.11021690539719653,9.85610014594497
21.95023827494647,1.1249979626141509,-0.11068430390710265,9.854073364555976
21.971848223089342,1.1809180766460576,-0.1106398657561562,9.85513378970787
21.970160625339595,1.3007024786651284,-0.10490576500839142,9.843939145498766
21.99187609052564,1.0733090757559072,-0.11562277756123629,9.847124737746245
21.990081987970907,0.7370069811080101,-0.12166396627280897,9.837056057914536
22.01190463770138,0.6143596536708532,-0.1147452925276717,9.84932408043361
22.010002633673373,0.6360688861157195,-0.11628997150611145,9.8587279613061
22.03193418336897,0.6469700463731295,-0.13662522965413032,9.846483120772449
22.029922320425918,0.6064703067961628,-0.09937376270071374,9.852787297017185
22.051964616759978,0.45467242108090816,-0.1236428876652864,9.84747318362517
22.04984106775704,0.3325557745629071,-0.15207352243744465,9.846398028298784
22.071995934521727,0.2068296190195268,-0.10534112296124476,9.860897283472227
22.069758848138278,0.15886490515558735,-0.1347686805262695,9.825668399426537
22.092028234656976,0.008982878164312084,-0.12878154780175408,9.845695637894064
22.089675859343366,-0.03376376645576351,-0.12164954710851458,9.854464983931349
22.11206161091706,-0.2341877343279488,-0.1807879687085676,9.846884048635202
22.10959165605331,-0.4225101563619183,-0.15318163889346031,9.837464423557059
22.132095925567967,-0.526547453814341,-0.16362194928210358,9.832936081334543
22.12950652334064,-0.5755776050791929,-0.15485520068564362,9.855573232951896
22.15213135091917,-0.6926542343298671,-0.15446440756382201,9.839151980889849
22.14942028339186,-0.7332996735153158,-0.1598571961378607,9.82314550518479
22.172167831318102,-0.849496334159277,-0.17552894326357052,9.833056018749073
22.169332902496933,-0.9839837602445536,-0.1748331369348626,9.842536430928154
22.192205282933767,-1.0177023853205214,-0.17014550494186773,9.828138698687514
22.189244512274175,-1.185715172472923,-0.17758416361796797,9.829154181903949
22.21224411581601,-1.1594629190293342,-0.16330801521105473,9.838422159991609
22.209154924846736,-0.8602843611351504,-0.15785694580068396,9.823853815330837
22.232283982662732,-0.6020051940261977,-0.1653801020360087,9.833502948448652
22.22906397054959,-0.53580144518461,-0.17486099288580248,9.835276445411937
22.25232507034072,-0.6403195762674397,-0.1637633026740146,9.835952927268451
22.248971971017834,-0.7029909939230526,-0.16298040896780916,9.832044731456262
22.272367379215154,-0.6829234872557148,-0.15708543672045794,9.833191946790254
22.26887864238273,-0.577270552085191,-0.15689925772433647,9.826348421636006
22.292410952650386,-0.43713089359758167,-0.16307115808757233,9.83486268036985
22.288783967714377,-0.29937655257278245,-0.15455282077009178,9.819973407995372
22.312455969025326,-0.20334753916132192,-0.1600836646458265,9.856846635043281
22.308687949796433,-0.121655516380195,-0.14842299933768338,9.839900490744999
22.3325022859587,-0.015369802382044221,-0.11997348846611534,9.859264527827689
22.32859058214622,0.10869700104927621,-0.13021021141837394,9.822094282214955
22.35255015222662,0.18338506805622914,-0.13561131735974347,9.856623018163628
22.348491823507654,0.3513364125178419,-0.11073504392771423,9.852646551595823
22.372599334440803,0.5259173252491459,-0.12369430291228313,9.850982592999342
22.36839136976918,0.6332735168285649,-0.1101666236825638,9.840112148288252
22.392650036015418,0.7801573148399997,-0.12105053320874401,9.8513647244865
22.388289514747512,0.8419982667281254,-0.12746569842830802,9.861934304725091
22.412702511908876,0.8847022443176412,-0.08833558759320752,9.824066360604117
22.408186146529577,0.9948015193547031,-0.10893151054281702,9.854428695581252
22.432756436465798,0.9974709508600473,-0.10082617776289174,9.854086627495207
22.428080917495787,1.041286390429173,-0.10248815102098922,9.840743273506828
22.452811976956813,1.0748844919409408,-0.09841018298634371,9.85418818699666
22.44797416457656,1.150511721682703,-0.0950054089767076,9.857018309954707
22.472869431198703,1.2037972389448914,-0.10931180234778874,9.844680134890686
22.467865577678477,1.312141160847107,-0.09474948310932003,9.854059081310831
22.492928580705918,1.0524298716555578,-0.11072865098453179,9.850493758061837
22.487755085098716,0.7381113513455051,-0.11421986486236346,9.840908227212084
22.512989485990378,0.6003500092155035,-0.10499629936782401,9.8548048964764
22.5076428208534,0.6728943282151156,-0.11253102142004778,9.846489002195707
22.533052484562585,0.6518410823448246,-0.1334777992598114,9.83926862820643
22.52752854086185,0.6369529358034578,-0.10815951688048418,9.841990562368288
22.553117476197876,0.4892051619642967,-0.12638502634405877,9.852520151885509
22.547412221632612,0.34001023508763034,-0.14083161952344092,9.834979445814794
22.573184456322295,0.17784538755741472,-0.12517907223941893,9.846522248164044
22.567293704786785,0.09054102903245455,-0.14129879465763084,9.826862909699905
22.593253570142572,-0.0793919915785352,-0.13486569007596408,9.831151818544313
22.587173220857157,-0.14411822627510673,-0.1403883950493569,9.832372334352385
22.613325060537097,-0.37166176404654155,-0.17540586030204092,9.84701110869768
22.607050238662257,-0.5449796786475716,-0.15563639569591448,9.836874459160892
22.633398722581177,-0.6364560762321483,-0.15875007677555703,9.818972191681965
22.62692493891395,-0.65967399486229,-0.16366004447999832,9.850036407069409
22.65347483179801,-0.7331703972959733,-0.15628860993419197,9.81787169414788
22.646797302431214,-0.7943324060665868,-0.1547356234945099,9.833983777525622
22.673553543624795,-0.871514053742302,-0.16184997497589387,9.824407783583958
22.66666697364812,-0.8732505578250239,-0.1652560640495022,9.829536085490364
22.693634660492382,-1.08469408976982,-0.18458200016198612,9.818151480151338
22.686534081809107,-1.1225334158190416,-0.1707866074447687,9.836798029660741
22.713718602460144,-0.8727595800471604,-0.14842668626466304,9.833703270325923
22.70639852215558,-0.5767550749517615,-0.16847479053079842,9.833093014314827
22.733805438263765,-0.39960913296655187,-0.16066251746943808,9.831521704756538
22.726259899409847,-0.41111262683582145,-0.14814592015397499,9.833389151379242
22.753894989992897,-0.4998382594141577,-0.14633748295236385,9.832181572213054
22.746118282345613,-0.5196219583365554,-0.16330660226383292,9.832457351563733
22.773987831923,-0.43418015649191566,-0.14059220795171323,9.831091402166404
22.765973676314434,-0.288147097650085,-0.14890124766670246,9.848548515234977
22.794083878396048,-0.16528615311638462,-0.1566453946406438,9.838940352427299
22.785825763896074,-0.09132592514859768,-0.14087651539730325,9.844788384319628
22.814183054176723,-0.0289281156268775,-0.1392750171829252,9.838698777841747
22.805674383095837,0.0320219251897721,-0.14572139771154388,9.85457651333525
22.834285696816952,0.15963788225066794,-0.12635168222178828,9.834700059521788
22.82551940549728,0.26182873850987026,-0.13678938593901555,9.823957709534628
22.854392018383095,0.33327843586310607,-0.1284153135904168,9.845330108170499
22.8453609740327,0.4739280465188002,-0.10710193509394679,9.842600087761348
22.874502234846354,0.5841830988027665,-0.10047193379053601,9.839134937449796
22.865198458057694,0.63049901041669,-0.12216562249694997,9.856352369194132
22.894616264818218,0.6242081638332936,-0.12961276944729,9.842948857968596
22.885031898896333,0.636690475385033,-0.12315742841424848,9.844336527647533
22.914734574937025,0.6791147743425006,-0.11888778583951201,9.849471259025192
22.90486115672931,0.7173661566134474,-0.11105080277991769,9.846468269692606
22.93485697927251,0.7502165764892549,-0.11323638244682437,9.84197873368279
22.92468583952548,0.8024621300600757,-0.11129649860557854,9.842996134961616
22.95498416445653,0.7809304411813818,-0.12072551705146456,9.840162159619092
22.944505981107604,0.7820537303608746,-0.11969786863763171,9.84831766584239
22.975116082845165,0.7647279208561075,-0.11402907009162311,9.843622054555603
22.964321205455995,0.8006828846938054,-0.11143531497143422,9.843561259670274
22.995253104986787,0.6225919174421544,-0.12726261698093977,9.842599934770053
22.984131318098854,0.3851349822746268,-0.13801796859646018,9.84231292279754
23.01539527320805,0.23375370923294617,-0.1191360904080511,9.833642626377287
23.00393600700399,0.2181665276215279,-0.11415800812659833,9.838522698456574
23.03554294529815,0.29170761030035197,-0.14249269253825717,9.842567472099965
23.023734962222207,0.2556931359084165,-0.13325903343126042,9.842926002793863
23.055696524954275,0.1363208876307917,-0.12605365952027306,9.844913924860455
23.043528082583308,0.04754880327074245,-0.14459570279584416,9.846205542210697
23.075856241421143,-0.021241918620565695,-0.13572815646500067,9.845171270180872
23.06331478288346,-0.09521064923859994,-0.13978660535720164,9.84111593178693
23.096022380182163,-0.13727168179614763,-0.14191638666007025,9.841088023159614
23.083094802045657,-0.1552102151697919,-0.14445340653815858,9.834555785864701
23.116195411435974,-0.19165357598732338,-0.14173738542027509,9.836760546420876
23.102868097930564,-0.2652059852146668,-0.1333904509275371,9.836309597861167
23.1363755284352,-0.34439959207743404,-0.143384695222806,9.842268986423997
23.122633720368956,-0.40654549212940405,-0.1681195111136426,9.844439759841586
23.15656331158774,-0.383693292336782,-0.1548090698020301,9.842405605850757
23.142391528269798,-0.3857807020596737,-0.14768245636203728,9.828862051974157
23.17675914128896,-0.5374875022707446,-0.15387430978455208,9.834798946257052
23.162140980677112,-0.5451021253824678,-0.15102613116309507,9.851066841454541
23.196963552587984,-0.2986861978876696,-0.1491382651842216,9.833207393801485
23.181881820475496,-0.19463425495135242,-0.13565057442727937,9.84179309997667
23.21717707407559,-0.18137374741790324,-0.15020116252156515,9.844808214464237
23.201613219342544,-0.21770054626171526,-0.14809611082633753,9.846769624026395
23.237400111991747,-0.17773802869186084,-0.13217649231572198,9.833267733286759
23.22133471040587,-0.10731796319211105,-0.14399522271109352,9.839379426973162
23.25763338360985,-0.02936474117371729,-0.13700241699279092,9.840093032830955
23.24104576000031,-0.032289423204840156,-0.1550494279208934,9.846716126625864
23.277877686571788,-0.049848212393018274,-0.1442121252259408,9.829603675554347
23.26074538203809,-0.025878063931343488,-0.14584934301171038,9.847947913748209
23.2981334032708,0.04954942890726369,-0.13747383484823206,9.839401523974194
23.280433056058943,0.10624591756731344,-0.1294429640522403,9.84747777740815
23.31840150749064,0.12956650308484063,-0.12772386726472432,9.845054206044898
23.300108012422278,0.1502869497392589,-0.13746486388813267,9.841857511258013
23.338683028793056,0.1928455021734159,-0.13080924914206785,9.837406009486102
23.31976930739402,0.2555995490901117,-0.12802186668180443,9.832760004301935
23.358978640845752,0.2823732347729557,-0.13953039493552002,9.844280645690267
23.339415826573607,0.29205889904452326,-0.14174668579969474,9.843491126498265
23.37928943357066,0.2979033725376242,-0.11357768557885946,9.845333032010236
23.35904664414564,0.30719436032994896,-0.13168006225470558,9.835875924019906
23.399616465181616,0.3402003448821646,-0.1256545230280128,9.852731473345719
23.378660481330037,0.35330565922651674,-0.1355448686653529,9.85107104760827
23.419961127029413,0.37214273944589144,-0.1265995078831228,9.846840461972182
23.398256122569403,0.33973700958973274,-0.1196676253989793,9.850080488422579
23.440324903601383,0.2680945443826797,-0.13603717627042744,9.854322217819464
23.417832063903273,0.2437739436507343,-0.1275600287295792,9.845076998456184
23.460709023262137,0.2500464644163106,-0.125703079728472,9.842115841243992
23.437386891925446,0.21640798310873421,-0.141301218219473,9.840470014733812
23.48111512680823,0.1746268316201515,-0.1296054456669006,9.844872103396764
23.456918492986798,0.11095522882601476,-0.1327356746745979,9.836106438173992
23.50154529904842,0.05644738291926891,-0.14556872442169744,9.83472125239974
23.47642518446361,0.016008352783557604,-0.1473149424738025,9.849782639634807
23.522001710644606,0.0007299334622905816,-0.14072354757235173,9.840815490540868
23.495904513178687,-0.02027806438224872,-0.14094727487004538,9.840667957351819
23.542486419191544,-0.025506866751346495,-0.13565097716540847,9.835402235603455
23.515354311082667,-0.037378916154288074,-0.13129525473014636,9.841192786824625
23.56300221343816,-0.07827605472722825,-0.1500770173501497,9.8373172073513
23.534771537614713,-0.08569059330046824,-0.14890671916091439,9.840498589970656
23.583552079327372,-0.07005966732194131,-0.1420169996929319,9.83858040849781
23.55415310918698,-0.01273930518271527,-0.13894886615670243,9.846527468875168
23.60413903849535,0.052692741556884796,-0.14142228373439172,9.8356075855377
23.573495413733742,0.09354478832053219,-0.1369051707282742,9.836526412293667
23.62476730850737,0.0647080094015564,-0.1324186206544146,9.840483459975854
23.592794562307716,0.0666273601657851,-0.1397631005088872,9.840178543133401
23.64544093426671,0.09251347889721333,-0.14787979280109081,9.828663284925986
23.61204589007347,0.08099674266494794,-0.14470378492283006,9.833304722897964
23.666165162588314,0.08630606536847278,-0.13481623873695814,9.834004145697989
23.631244083712392,0.09371762872717511,-0.12914974099914586,9.83490849600889
23.686945468040655,0.08467325238923286,-0.1348190809057715,9.84817919399193
23.650382732216382,0.05646988728987408,-0.14200480715462246,9.840069954196796
23.707788467775362,0.05475544534127093,-0.13123624244003385,9.832677040686114
23.669455104930627,0.06758307681487441,-0.12415614612187985,9.830848185431043
23.728702043810003,0.06281835683995864,-0.13800210904510832,9.839260047885766
23.68845267276787,0.07662860885664903,-0.1341812630895835,9.836813282785533
23.74969486523073,0.07371719926863857,-0.13723338472374969,9.833406592066877
23.707365819938666,0.058192994905292256,-0.13137000386985,9.85183522448479
23.770777878043017,0.059063761814128896,-0.13185957955612526,9.830471093684558
23.72618288595793,0.07073283065889356,-0.1340573692490885,9.841173667911074
23.79196333789749,0.08069215424992826,-0.12838783379371654,9.84022033094949
23.744890271980704,0.06340020335967804,-0.13855723728386835,9.834584527468236
23.813266480574626,0.06115220261898975,-0.1263440787137279,9.841331336568704
23.763471449142102,0.064350975479237,-0.15435475280649508,9.83782073619062
23.834705029269713,0.05593498111413819,-0.13002890469515624,9.836224586929376
23.781906669992885,0.06959002084885947,-0.1461944349516579,9.843045679930869
23.856301488138556,0.06418599455638481,-0.13148654170252824,9.838963878571839
23.800171412610617,0.06813169563756863,-0.13452527079021503,9.833658023263272
23.87808226518519,0.07090610559824559,-0.14222557613383766,9.840241749228344
23.818235608523967,0.06863968541073101,-0.13576888358905959,9.839046350419553
23.900081538630072,0.08721391522450057,-0.1351577370094492,9.837147195817623
23.836061795040703,0.05910087880236783,-0.1438508833003418,9.839731701751816
23.922340908123324,0.06753754487244096,-0.13046102691459663,9.835000153013727
23.85360248389603,0.06335201058327335,-0.14682171628211751,9.838865965632902
23.94491458530186,0.07538982057129837,-0.14164749413433697,9.83209164025028
23.870796484969066,0.07605677713339683,-0.14390900661732509,9.835852016874817
23.967872077478148,0.06796451609661724,-0.14525704798342448,9.840984800964852
23.887563689911428,0.06601921617567309,-0.12431090652410844,9.84469793889845
23.99130541831028,0.07596757923097636,-0.12429785412216254,9.836238038731508
