Time (s),Acceleration x (m/s^2),Acceleration y (m/s^2),Acceleration z (m/s^2)
2.523807818403419,0.1862871976465393,-0.05717093667698237,9.488916659327582
-0.6447583330537509,0.18545737589017822,-0.053828131099861495,9.453823487628892
0.4275846963273135,0.1999345629923577,-0.05434988413610413,9.524452235407136
-0.19846198359129516,0.17955945770960907,-0.0638153030234831,9.576477731199356
0.2641572392954672,0.15218439131000622,-0.06813801511954301,9.545588817264488
-0.07709999313926323,0.1376628098985446,-0.09020112518935142,9.55642404921764
0.21899896861265164,0.14917122038992267,-0.06548865321726395,9.552285967210878
-0.01271345109690185,0.15942861920937001,-0.08772176635668655,9.543207611912058
0.20572694503296568,0.16997606464154522,-0.06557791875602621,9.557505365990375
0.0320649097650446,0.16070179083338057,-0.07694757745237216,9.564961155662177
0.20542976433460422,0.15750960623391508,-0.07844164297306218,9.56131904032319
0.06771240416050227,0.1609116343917721,-0.06973895860089858,9.551426742686887
0.21193368925321693,0.17918044378640052,-0.07927973850208554,9.550853357929535
0.09943072545540975,0.18055849507072774,-0.0721808943225423,9.562891191405589
0.22304651164830078,0.1561975408992071,-0.05169076354179749,9.565033053471948
0.12811445105211713,0.15866614628215664,-0.06700890135386102,9.571078515654914
0.23685475187782548,0.1579269200718215,-0.07378262667558477,9.554234455181092
0.15523207479569534,0.16182673746722978,-0.07795984126364411,9.559686180600774
0.25146016128569787,0.17736504482356813,-0.05885097119056653,9.585399296213025
0.17965549813106554,0.14564655805773513,-0.07889034938641963,9.56139012461405
0.2668908348851639,0.15077587183413832,-0.08528266878579907,9.555480187654211
0.20453637826160367,0.18167339438206664,-0.06146784173620816,9.574234562579662
0.2834679642150703,0.19216163651902665,-0.0885667136827378,9.554730821155973
0.2273478858738414,0.18341744670336455,-0.06150753902322345,9.557276570260862
0.3000732401440307,0.16912290272974834,-0.058898975096269776,9.566242560387446
0.24976257924546053,0.15970610268965263,-0.07513030925535787,9.56953553171915
0.31710141495387495,0.1750099309387077,-0.04864941917568704,9.575424496281565
0.2724179541585995,0.17616704242837153,-0.06692282367458835,9.550287723122207
0.3356668578628154,0.17456275432845664,-0.07406883943053907,9.557323486958072
0.2942670566691495,0.162468569577133,-0.06177124289653212,9.565600471980176
0.3533721738286478,0.16636446693390727,-0.07207978383166895,9.569584387310396
0.3156211340929631,0.16818091509769684,-0.07132681619559521,9.561346170463786
0.3718612886288527,0.19239103897659915,-0.049131853740438554,9.570158809049927
0.33798314520784234,0.16441180440247175,-0.0771266728614988,9.549471142964421
0.3903041265338257,0.16298828092438433,-0.07413831677694059,9.573655297958004
0.35884727945402184,0.15845386101028547,-0.06440275515250608,9.547721992609468
0.40919108938792564,0.1581941273544639,-0.06961537786103641,9.543491022239412
0.3819045503056152,0.17191047817837313,-0.059657954736764475,9.558542194012771
0.4289790399748931,0.1657312043472452,-0.08732259692905235,9.573065453063094
0.40253449794851237,0.1639302278571329,-0.06098718894941817,9.557661817751846
0.4475468482834682,0.1752883071786989,-0.0761947631027249,9.548243017640987
0.4231550106435745,0.1837740934329723,-0.058529579002392196,9.555058786096064
0.46622664098079336,0.1668540164873445,-0.0777558324984293,9.541056141563946
0.44368653090714827,0.17211009086981513,-0.0670628904381021,9.571243069562373
0.4849883616438538,0.16001903018373856,-0.06582816468043397,9.544690588874516
0.4640898744960927,0.15724166916698232,-0.0702343302018422,9.539207126728773
0.5037591536653817,0.18366598403904982,-0.05668331222335952,9.566326045079109
0.48446696846613785,0.16331949123050973,-0.07589678758934926,9.550680843589653
0.5226611615001392,0.1541955856301569,-0.08033249936172299,9.5626042405523
0.5047901104706625,0.17191869051449635,-0.061207193928068136,9.557504710756461
0.5416218498646328,0.18295019619812844,-0.07048616833596147,9.530694322850676
0.5250155293991895,0.18178856226709741,-0.05131202443943796,9.547118888163187
0.5605612841870677,0.14622583956481655,-0.08249625631642883,9.548585971304558
0.5452249783250399,0.1677682657566852,-0.06093170223993191,9.566306414576792
0.579618380546479,0.17063907483845087,-0.062435589032280414,9.542408746036083
0.5654010640205558,0.1942962892540285,-0.06528440757023865,9.550982232175505
0.5987161987617301,0.17942718714184888,-0.06593709044987023,9.54578201264205
0.5855333939378147,0.15704795776828387,-0.07420462390591442,9.563493928546094
0.6177844874072407,0.1543363001175591,-0.07251846680972696,9.549580181696234
0.6055845825345108,0.1607586711079398,-0.09431448775394959,9.546616177147145
0.6369529288282956,0.18809330791864864,-0.04987250899180927,9.57276030680165
0.6256538447466464,0.14676868559035564,-0.09423526680461843,9.535532693059977
0.6561557587369025,0.17057499115130212,-0.06797019785608206,9.560724550196372
0.6456826597581685,0.1675637654029302,-0.07552773551158681,9.53699640340193
0.6753438020706699,0.18740504967617058,-0.05159764982777628,9.552163543741242
0.6655804143029245,0.17356997853645945,-0.06195114952827758,9.561090532979557
0.6949428809856517,0.15522563491249303,-0.07442300225794311,9.552304710704677
0.6867648493340931,0.1775505043876781,-0.07511721279733687,9.571807129055378
0.7146975158226261,0.1680422875047469,-0.0647239381738569,9.579015026704758
0.7066509487060594,0.16925418351398017,-0.07524743707951909,9.533225353841173
0.734052004993242,0.17987230414506372,-0.0803594057548754,9.5572917543033
0.7265864655830273,0.16255355324617204,-0.07280837204088653,9.577148981924067
0.7541568662366771,0.15196279806650126,-0.07572550798747393,9.537420871384834
0.7475770015796788,0.17826417219788554,-0.06516374217339886,9.54365959496139
0.7736209208513556,0.1732496673639855,-0.05229534091572582,9.574196923823118
0.7674221621494561,0.1664762935428616,-0.0667434777814094,9.558517701618436
0.7929063252190618,0.1606546534013035,-0.07163533493936217,9.568638398170666
0.7873101626725992,0.1832020048356219,-0.07512756067404705,9.54724113324648
0.812268829139005,0.183350744936184,-0.0776827666674459,9.552826356343488
0.8071951003940449,0.15769560020896134,-0.06378639170429798,9.551308114708966
0.8316470609184226,0.1574018372820283,-0.0797283592125386,9.555993228661016
0.8270416281300867,0.17403177871397152,-0.050571896740018274,9.566776494234825
0.8509023461892857,0.1802202728666466,-0.07699080892283304,9.550355567463289
0.8469042177616466,0.18152994797322408,-0.060814452302055656,9.558900864010248
0.8703351274968963,0.17655085997154998,-0.07536021097401736,9.551164950944925
0.8667524091578198,0.1680835747278732,-0.07149253943318963,9.550746829011478
0.8897428917512962,0.16619393499297277,-0.06520088435276952,9.532068824720032
0.8865697902731418,0.17686578705336273,-0.07495538000298023,9.570096628571253
0.9090747470513452,0.18683619193835593,-0.0577628981012166,9.548095574774926
0.9064295242128656,0.16852685055196182,-0.07375452112260775,9.555991091839035
0.9294667189835218,0.14509616016592716,-0.08281648665778203,9.545220278592414
0.9271837369927015,0.17176677769284193,-0.04915858254634797,9.549101305642475
0.9489198494872808,0.16360714166653822,-0.08031824818642014,9.553629151883607
0.9469959459739556,0.17003726675331648,-0.0670775270187942,9.543783479156174
0.9683623027415952,0.17508814448478263,-0.06468916159614806,9.524767322023868
0.9668045234944748,0.186379349290148,-0.05255413827501991,9.550129785247853
0.9878115766240417,0.1850079387480789,-0.05978473614957076,9.531370456699081
0.9865545411791636,0.15013149078079902,-0.08098808065896387,9.5514961615742
1.00720564097216,0.17542633137277555,-0.0507124368975051,9.553843945920518
1.0063345619901383,0.17034878859018793,-0.06982127845374811,9.555611531894398
1.0266839284403269,0.15379745453452479,-0.06616695478812049,9.538256130482381
1.0260836291121032,0.18528997311821238,-0.0656685685263144,9.544444159778152
1.0463540511791825,0.17096964410762086,-0.06845493775359048,9.53723760355514
1.0469753165427247,0.16317925773713837,-0.08058133975260798,9.536895266067573
1.0665296123359396,0.19206956805639966,-0.05018852954734097,9.54668534445588
1.0667032120334514,0.17473643201306194,-0.07430866020741334,9.51952017617915
1.0859582217593888,0.159292549459903,-0.07788724312830597,9.560189843306517
1.086417277532988,0.15439339366727844,-0.07622705720479755,9.546195756589016
1.105452388373229,0.1620877808243363,-0.0805195577572284,9.549892844552485
1.1061764145654551,0.17937672676932678,-0.05580982452085658,9.53107359765638
1.1249479963313853,0.16769331376722868,-0.09292280013947729,9.534175203056831
1.12596143885953,0.1760593469749247,-0.05311494038554296,9.562916821935065
1.145910811261112,0.1674211648233599,-0.07250535696302932,9.54904076138037
1.1478335833563087,0.1818441935715373,-0.06263924773108191,9.55838168935564
1.1667431384216662,0.16100918678578646,-0.06466181673582215,9.543487654610312
1.1683458166013516,0.1517817170531827,-0.07446271365269302,9.54054039935579
1.1863706871367894,0.18149131768006668,-0.06006354838458048,9.54386608511567
1.1890667398654204,0.18018722997705056,-0.05389308248714687,9.530123920993898
1.2067998843516499,0.17439224401996634,-0.08278639129423807,9.532052237899533
1.208834067532931,0.17376339774287125,-0.0670248804745316,9.549718701279568
1.2263516677383388,0.16180041184094562,-0.06217082526058346,9.552131734259149
1.2285510978824523,0.17700278441817624,-0.06627919052782336,9.550028483856611
1.2466658129772785,0.17231249356495937,-0.04825641222840975,9.52797957906763
1.2493440832211713,0.1614893463901829,-0.050868192571883686,9.533211113743025
1.2670804514865877,0.1502775866705815,-0.06614936999547721,9.531236746712858
1.2703408412253934,0.1752960903742186,-0.058350493286855626,9.549181572617167
1.288105273457363,0.1778462607936126,-0.05974268839431205,9.546543641369436
1.2917956416156418,0.1670164967874957,-0.06827343936666927,9.534146380350045
1.3082246684529333,0.16954684695348965,-0.06936737447363597,9.524357481048023
1.3117045539707624,0.17325306119299205,-0.07417700335316108,9.559282785712778
1.3288511838052806,0.17838528395005535,-0.058915485247221185,9.548858691209848
1.332163655527159,0.17073677703354426,-0.08884747114705942,9.534038616745809
1.3483370596524746,0.17135616217782973,-0.06902664436311015,9.55398518597917
1.3519185981023352,0.1555313246604795,-0.06644193558801802,9.554608329039919
1.3677326702457466,0.16243174090597595,-0.07900918608173695,9.541053510149062
1.3721730577756894,0.18022698751299004,-0.051904771436768346,9.557162110288267
1.3884703409848111,0.17482285978216466,-0.07759322153800827,9.563859875110127
1.392100071709761,0.16047095924427765,-0.07626608764322776,9.530914414414609
1.4077219097000138,0.18253209232640888,-0.05058080173212822,9.523714146809711
1.412397554444492,0.1801857369396458,-0.05753375515973842,9.54209711732658
1.4285635414827607,0.16013549887948605,-0.06594385931358726,9.547519004096776
1.4323797032731023,0.16336395670423906,-0.07066667368584624,9.538111580796253
1.4493849823040614,0.17156655189549813,-0.07018655338374802,9.551211493083624
1.4544259681174019,0.17197047698443504,-0.07308384433390262,9.539693277788663
1.4694447961808983,0.17875458205736663,-0.059192801898510644,9.520460318007702
1.4739493809078272,0.17330220880063577,-0.0647808062689853,9.552742395036532
1.4893330620540255,0.18392813985860798,-0.060085815446835084,9.554240071380983
1.4948063709695092,0.1702774271054645,-0.06004637263458279,9.510476702898496
1.5094398471923882,0.17414962438137627,-0.05744595174634391,9.535911281842546
1.5144497447960235,0.16580669782324198,-0.06223226944748962,9.545071366784827
1.5290150997120942,0.15937228595597322,-0.0914750924351989,9.552654843859814
1.5341387769320423,0.1615923368228515,-0.05998594020391327,9.53359748574951
1.548567889585677,0.15872903704213395,-0.08107942677551365,9.529166740869048
1.5537361377678789,0.17713320062974805,-0.06419469334196205,9.563015040972198
1.5680260846861096,0.167293234145421,-0.08040738245710301,9.544974506547467
1.5734619191462875,0.1659797888176096,-0.061335714714249444,9.54767104377814
1.5876055103654985,0.18364937107576565,-0.05638677440966758,9.527587799824218
1.5931954245110531,0.1694673422683788,-0.09259633987213634,9.543419575544652
1.6071361758849239,0.16175303005986114,-0.07187237363094066,9.544798453606319
1.6127888119474032,0.15917744584387,-0.0798212218714659,9.527946260534488
1.6266014138044655,0.17333305708424332,-0.0636991968836808,9.53308237015892
1.633067649708347,0.18047570506526417,-0.05741927202516122,9.54655621279573
1.6473253810236081,0.1679308062882428,-0.06524461224182643,9.545784499232228
1.6531028863853034,0.1704603619468946,-0.08238105852608772,9.52223961635521
1.6668295641850095,0.18576766669392544,-0.056093406644360896,9.532456787686034
1.6728174473470971,0.16732378567669542,-0.06925665747336955,9.53846408685535
1.6863806141952506,0.15838130683271218,-0.061731797671876525,9.531901904557595
1.6925150000490432,0.16160678516084886,-0.07178538326460997,9.538279921481093
1.7058634867196933,0.174664391151128,-0.07122757683064757,9.535750026742367
1.712120607147818,0.18000399055409733,-0.05304866328015239,9.54265381608681
1.7254296419927315,0.1748697991987116,-0.06780919070859032,9.528658862522775
1.73182213818811,0.17508614745037254,-0.05824035134346269,9.546786004242968
1.7458615958815362,0.1814341298176644,-0.05961190507697903,9.54761686523201
1.7532966068223794,0.1701417556888602,-0.058521307380409934,9.537041035894628
1.76687897513488,0.148431940426283,-0.06131478041275308,9.521467309908246
1.7742429254873668,0.1772113987360302,-0.0669118600819016,9.542554551177412
1.7877582368413405,0.16401341009050463,-0.06188134229726971,9.534746503280097
1.7952486799576013,0.15791540383957448,-0.05356892115073154,9.52546056794384
1.80863820442793,0.1610535273463659,-0.06450486883737236,9.544479629730246
1.8155636179926555,0.16525261261955074,-0.06945291945498151,9.53455938594712
1.8280325709602292,0.17418911046300284,-0.05641858587897995,9.527881629441856
1.8358956880604547,0.18567551722728895,-0.06573194820273191,9.513779135346034
1.8488317864860413,0.16794097199904642,-0.06625083206463118,9.54314552474077
1.8557571823899592,0.17221671372701916,-0.0579423565096543,9.52659282106231
1.8682805998327328,0.16573734904116666,-0.07616890819030733,9.537389008483098
1.8754700756022047,0.17595466065650478,-0.054285667618282664,9.548557576090435
1.8879445087154008,0.15996874110166645,-0.08549042920995269,9.53236738755486
1.8961936927795522,0.16340517903025648,-0.07155022513315498,9.519260220729375
1.9083048223281116,0.1873374991220298,-0.055253214286923896,9.541879887095158
1.916359827853931,0.18909088258168857,-0.053497666389670774,9.529273417934153
1.9290509411277417,0.16870512475860244,-0.07027979869971146,9.517492612326203
1.9364321019534125,0.17269669371665175,-0.06475576436262914,9.559757503390605
1.9485513399030265,0.16565931156514438,-0.06519948004586616,9.545031082454685
1.956034766080389,0.17804750182727397,-0.06184108259552597,9.514200376871663
1.9680987150648184,0.1838168560046716,-0.058981704413265855,9.532494574589293
1.9757362444051692,0.17171712352121046,-0.06213161472266797,9.552075489402721
1.9876574168311485,0.15749684492709284,-0.0622580266930961,9.54904875522283
1.9954202478587804,0.180979867777811,-0.05768214707819941,9.54201470552074
2.007229650184762,0.1883640494386441,-0.05461051037452049,9.512474711868936
2.0151022707599116,0.18243879259192686,-0.05330737138597045,9.55345444952821
2.0267899448526823,0.1636368335672837,-0.05891618598764,9.535121613964392
2.0347063325938346,0.16729435275172144,-0.07104835000451312,9.556133605654972
2.0463297268519383,0.17721369447154534,-0.057966643161104586,9.528788219002372
2.0543853691485476,0.18620845061666474,-0.07258244842100567,9.523132497138327
2.0659074078480444,0.18747681376657074,-0.04999409998287714,9.537125179911989
2.0740616747817633,0.16360635734974185,-0.07554832413085254,9.540315932796714
2.0854758629581753,0.18492779004010387,-0.049115202601403944,9.530069165158741
2.0936691735979434,0.17327582325939778,-0.07196087657773981,9.53460959205254
2.105007157106271,0.18185880898129508,-0.056642131880556654,9.548687891893762
2.1133502620775197,0.17307302831279125,-0.05196059454359913,9.534864643183441
2.1245684311845148,0.17621852161227536,-0.061642209791284056,9.53400637047453
2.1331239819880508,0.18888024027980313,-0.05354607708475188,9.531572683749712
2.1451748848706607,0.1814571554779667,-0.05956355049441709,9.539689337888348
2.1536348712136584,0.1656543263362923,-0.06127950664257379,9.53102543932861
2.1647592757899576,0.17704005566418682,-0.0524412558459249,9.532519851349484
2.1732803878609306,0.1752980745848216,-0.07415890699772731,9.533343004989225
2.185304616324124,0.16235534616280795,-0.07201428522775391,9.530547456434515
2.194915582692813,0.15762384807553703,-0.07707175152524494,9.543780220697647
2.205804124745341,0.16761790277307054,-0.059411179421436956,9.544792543411429
2.2145572351643508,0.1640020204670423,-0.07009691110163875,9.536423779797799
2.226333983337274,0.1761877469058808,-0.06651969056216232,9.534014574230042
2.236149380223107,0.14853039972296078,-0.08669589281384724,9.539589101668144
2.247019661665704,0.16649285734028127,-0.053810401719411136,9.543417860633266
2.255850181697924,0.17862326394444947,-0.07090454640409304,9.517012188704571
2.266606400973289,0.18373517982890084,-0.05544743367176528,9.540732486543348
2.275498010027783,0.16766203872557997,-0.058677962193336396,9.54877619527203
2.2861246399583326,0.16070945034995338,-0.07898760794765983,9.544546421295212
2.2951564144002505,0.17786943300244387,-0.050856761771130125,9.526414635514339
2.305715651104005,0.1777365159066587,-0.06684233003930616,9.521385580412197
2.314819446350595,0.1744481762284532,-0.05841597729397221,9.549428153053238
2.3253077145687557,0.1654697559063133,-0.07437485914126192,9.5334237041039
2.3344120155435863,0.1823190279787528,-0.06890470379536244,9.531954494097025
2.344825330159347,0.17687145566662535,-0.07605036609662612,9.514804424626274
2.3540935814849204,0.17442840447971547,-0.05904853652923137,9.556234306760954
2.3644172282993967,0.1587538687541978,-0.0734491421776627,9.547923693956072
2.3737584285834434,0.1644710439277448,-0.08565000128692792,9.518769190687237
2.384006079016737,0.16906190457319947,-0.06078058289757598,9.53021794139748
2.393419075313362,0.16574655954729456,-0.06995361683027117,9.559221020429083
2.4035634696999626,0.14413523331879405,-0.08713443263937144,9.529361413211939
2.4145920912208125,0.18222531123695643,-0.06470759368402879,9.53797264666289
2.425239627377039,0.18990129801676864,-0.04654105760931609,9.524189629564829
2.4345647557932004,0.17425610540313027,-0.056062344235268784,9.531964698909473
2.444814836338583,0.16344052584946483,-0.0640003623827958,9.538111245988912
2.4542229707198624,0.15266806584858558,-0.07023056073094305,9.53174277793627
2.4643567982509444,0.17093244902814037,-0.06116653829357924,9.534013679645799
2.4738421990803303,0.16224590088146185,-0.058777433457352854,9.531023899070709
2.4852098223824273,0.18024397295513359,-0.054724592429211114,9.532089592022173
2.4957198864493204,0.17894754605348479,-0.06289147814090434,9.54457051382709
2.5053482376923317,0.18389562037190757,-0.06341947003269195,9.524736358093465
2.5152713649466487,0.1833736677171853,-0.053975016046566036,9.519856381175801
2.524970634674571,0.17641323934284187,-0.06621080848488187,9.53352332557511
2.5349246215629244,0.1711666489537136,-0.07480861828988145,9.530642839421587
2.544548727020739,0.16494789192063847,-0.058000334516970585,9.523465006384699
2.555312207285974,0.17520945758415374,-0.0629214977468569,9.514827575980764
2.5652487102003656,0.1802674608229048,-0.06907253109948806,9.539145273776038
2.575105597143395,0.17575640823744043,-0.05200068213880111,9.530838062200441
2.5849917414426993,0.17774915765623672,-0.07087360705154648,9.524257739869178
2.5958837500647163,0.17241482090676735,-0.06928334706854421,9.546361181799126
2.6052898743185056,0.16001677206187048,-0.05688124956381991,9.546408955622827
2.615497748660767,0.17123850722112996,-0.06991487205179839,9.532184536576839
2.6247653034108827,0.1803134593316147,-0.058098638319539195,9.539375985979493
2.635714365541732,0.16867939152829362,-0.053347282566129785,9.543011859733433
2.6455105130568524,0.18300849745643277,-0.06556588598515438,9.526366188383363
2.6556979217105887,0.17824803771696027,-0.06174265131405556,9.528715745634592
2.6649932099355182,0.18419972105327692,-0.053058857598684075,9.530591990186236
2.675867923864436,0.18582536155309953,-0.06235906603149757,9.519532225249643
2.685743024581241,0.1613820664898781,-0.05685943858159248,9.540831191729522
2.6958789155920964,0.1813943266321278,-0.048822940086719585,9.545788883783782
2.7052929098039074,0.15441825632043915,-0.07417465955937,9.520630003370501
2.7155894940582703,0.1648021615403244,-0.05717976159294628,9.515362341766155
2.7248483582321157,0.16529303163817968,-0.06061651828026236,9.528863861531505
2.7351942595393837,0.16407750734480903,-0.06964230567695091,9.517143100519148
2.7453332501836263,0.17874356583057588,-0.06466208810125539,9.54850935312007
2.7558683638387254,0.18647087870864648,-0.0553690377312631,9.519619118819673
2.764952925538032,0.1829578048723208,-0.06308225909197437,9.5248077748306
2.775503396783177,0.188057478141101,-0.05526575976053653,9.549062763192808
2.784556556399326,0.1453596069323464,-0.07718398946049412,9.524299403962377
2.7951564121497725,0.1829177654568997,-0.056737182543967146,9.550485399839085
2.8041570884917393,0.16853647578087744,-0.05733811873911537,9.519036237647128
2.8147696029275955,0.18769369095081045,-0.07038169404652651,9.540872132587346
2.823671132878712,0.1653252933465181,-0.06164046447705978,9.533920214257476
2.8343870158605418,0.18514694830893413,-0.06219707971514077,9.525340306151007
2.843299098342935,0.19116549545057795,-0.05382803341020929,9.519440875684127
2.8540572272788007,0.16334711073235864,-0.08280641504519362,9.539066477924933
2.8628950408215923,0.1683935387992614,-0.05522584956858273,9.549623088697473
2.873705705682048,0.15505536745484363,-0.06587281757637352,9.542934895589298
2.8824282050985364,0.1713677417344656,-0.054916057993932565,9.524932906741922
2.893298959407457,0.17875947458384608,-0.046447101526544576,9.511452486776598
2.9019521329416675,0.1692272831311277,-0.049916844774306135,9.556828167677116
2.9130224543475283,0.17196522058115332,-0.060819421140692276,9.536185332600013
2.9215232078656954,0.16446053251764237,-0.07881935264680912,9.54910385506215
2.9331200354571054,0.17665158914426043,-0.0626104214141915,9.535783829694536
2.942308240202002,0.17721865774329315,-0.05941002181234786,9.54263549233984
2.9532282952101974,0.1522532186410333,-0.08684914457183354,9.542126091225532
2.962777057987588,0.16145183758216872,-0.07287167340604393,9.52724352805478
2.9738546732041975,0.1791857017357783,-0.043930045506774054,9.54961122973737
2.9824004118321423,0.16889164816146293,-0.06573410291777446,9.53052463082334
2.9934707556650175,0.17397635315683993,-0.05539740959324267,9.542798984160855
3.001889331776883,0.15731822649727156,-0.0652927084058447,9.527240860111887
3.013432809158559,0.16668999285313377,-0.07506178707025299,9.538148751304755
3.0226708098479063,0.17871385820291863,-0.059209742011938626,9.53348118735497
3.0335897652342845,0.18554831555768717,-0.05549106144621975,9.531082104398509
3.0424806244169407,0.16368080742865262,-0.0794224248684499,9.517643246707763
3.054409926423102,0.1744821414278574,-0.06783525365516824,9.540727683506375
3.062684529087008,0.1763507370211649,-0.05593199962317598,9.513013547212106
3.074017422807927,0.1734744219841208,-0.053710765432015334,9.529537716001688
3.0823019850483933,0.18122542971480415,-0.05145534994015634,9.54000017443956
3.0936645700988907,0.17434289708432807,-0.06106565922637758,9.527965503712535
3.101867492334666,0.17404000554743376,-0.06461238384068817,9.525291913639698
3.1132407879376798,0.18394208936406142,-0.057306613944962205,9.54908989563201
3.12146322720792,0.1765353417249883,-0.06593529452366284,9.552928806535299
3.1328754131393475,0.17237576653910278,-0.06806737257365063,9.53334100172237
3.141172007003841,0.1923716528444258,-0.056335932329733614,9.526353141279259
3.153576215324937,0.1862132612925393,-0.0604257980201543,9.541041347800736
3.1615779327832185,0.16551750405000262,-0.08175356074339851,9.540723625756183
3.173248979142757,0.18304446501953633,-0.05786725799596324,9.524236583802677
3.1810649061912164,0.18080525914255188,-0.06934503005398977,9.536006841106929
3.193427375335697,0.18697789715947508,-0.056625482967752154,9.542565491223092
3.202823918583093,0.17710544764912942,-0.05424691116147411,9.53851552763902
3.2158089804645194,0.1745963434506968,-0.057947424666343686,9.547714411244046
3.2245232337899976,0.17631568778293708,-0.05446479573675251,9.526485532651492
3.2359359024113448,0.1700440929473433,-0.06056167347837007,9.513714599192523
3.2439971523608486,0.17970197922618927,-0.06460136062608324,9.527055848542155
3.2555899835334836,0.16262001393800063,-0.05379221363367081,9.529363725813951
3.2644922694773397,0.156291345782771,-0.08279451856511225,9.525696931619507
3.276290244108637,0.17429650382842646,-0.06942081489781797,9.535750219136863
3.284159077442762,0.1676473343130597,-0.06186017887739405,9.543566624530204
3.295905954772147,0.17683140348171716,-0.06266283314470386,9.538163351469128
3.303794509507987,0.17892585124897484,-0.05290182687251674,9.530476454827363
3.3155249153381847,0.181600507889129,-0.07537444977007705,9.531585996602926
3.323321063165492,0.17887952196410964,-0.052952527459864875,9.54344046631505
3.3351792398003335,0.160694757612538,-0.06076991767204152,9.534595499193768
3.3428610453706815,0.1689308550072023,-0.05638734541588902,9.530686409051143
3.3550045213846316,0.17951845964104576,-0.050589172108978064,9.534546306960964
3.3635935220785096,0.16547344253976737,-0.06907522866072249,9.52840494044151
3.3753802493141096,0.1691449867009871,-0.07949863650176682,9.532003180561107
3.3831733928979375,0.1783753625610097,-0.04618944601248459,9.541678299673752
3.3950001585304306,0.1737835228162345,-0.058376508553420976,9.527942718010289
3.402707719876603,0.16797394131710774,-0.058552995127050825,9.53729939377197
3.414620950899434,0.16507811982225973,-0.056445553703027604,9.535779822558325
3.4223398025702405,0.17729675569964348,-0.07532416532805919,9.532378981620846
3.434205938830017,0.18264533937096894,-0.05236240054152818,9.545609382240853
3.442427325775399,0.18020017809239847,-0.05532252272143138,9.52806484207911
3.4550241883925183,0.17016851855613208,-0.05919262231628509,9.520535355292694
3.4624250413889954,0.1680173948595363,-0.05651836890694953,9.566552264079101
3.474609635848292,0.17106629736334572,-0.0661743308378229,9.54072981958772
3.4820586170885455,0.1652847348679204,-0.07128838157375506,9.555230053038926
3.494181586808691,0.1733880125581676,-0.06614882151526115,9.536285096204072
3.5016198324534193,0.171896209641475,-0.07695577442184788,9.537134863197279
3.5138153590285968,0.18721882351780222,-0.05898241111528553,9.552352895864908
3.522076495588611,0.17443081587297257,-0.07258494259984602,9.53300647782014
3.5344393150645974,0.17342362055956315,-0.06789722439937934,9.529989919846987
3.5418142730355258,0.16971663315491523,-0.06829771286699397,9.547529625951249
3.5540467630675505,0.15316204569092579,-0.07115538833034982,9.542744444014089
3.561674387853404,0.16412004904843958,-0.06883698694601896,9.536493140803616
3.5748374357655943,0.17308214411173026,-0.06526436466123678,9.543558529834735
3.5818875445493297,0.17113095722337002,-0.058179204930800435,9.534021729711338
3.5951143157132726,0.18003339705514482,-0.056949781322157195,9.513435557818362
3.602600519658433,0.18797505320612834,-0.060110104647494396,9.549367738829527
3.614977350297469,0.16996310722571867,-0.05715693727266267,9.546867102719018
3.6221554803045675,0.15966249854986,-0.07410118590451154,9.54575648208888
3.634557011478155,0.17643858473830493,-0.06395708049166315,9.535521151229755
3.6417204656034694,0.1596439750838559,-0.07141914519173233,9.526753804664931
3.6541940502536723,0.19047833610262913,-0.051686203182289434,9.541353326816164
3.6613713101198817,0.173571246650737,-0.0675430684133259,9.535110798138756
3.673800344051433,0.160648809270067,-0.057105190252633505,9.531943523792878
3.6809915021865756,0.17615997130376473,-0.06284048964687754,9.517878746982984
3.693349297122944,0.19562287379676194,-0.06497458651200116,9.519095809617133
3.701054002316886,0.1886198242716504,-0.05061661584729919,9.537547267459002
3.7142044053282652,0.17223801220718152,-0.060695384499410594,9.519023290550455
3.721053031805279,0.15357557737459598,-0.0726106181190989,9.54124018237697
3.734741074532206,0.16623160119196354,-0.07901811660152458,9.549136592106501
3.7416601612138214,0.17973871720788362,-0.04756168313640277,9.526407908173256
3.7553358729860267,0.15220809056347703,-0.05923628376580421,9.54728578063278
3.763133944572739,0.1716859299715485,-0.06417551679439672,9.52701233716401
3.776378458314566,0.17242258046829775,-0.07752917459400559,9.52996716747406
3.784816351204458,0.17027635870549915,-0.07269437798910738,9.53322043261184
3.7975722267150376,0.1708421234911469,-0.07075167262799394,9.519683754512513
3.804498776160054,0.16948484089152838,-0.05401281229388833,9.560006706176804
3.8171510878658053,0.159989475150636,-0.07633772794099128,9.534032226755574
3.824047789712087,0.16718733638216288,-0.05964020846135977,9.548287009292292
3.8368533527060875,0.1639340607207884,-0.07358657694755369,9.523449026534832
3.8436190159775814,0.15791205295742447,-0.0619159065664045,9.550574081647714
3.8563815453736887,0.16837318420288228,-0.05735935005764482,9.53756815665306
3.8632205401552517,0.1785233208091035,-0.0643065616860263,9.536713202830375
3.876018398531468,0.17262869421290516,-0.052026623604873964,9.533672971718886
3.883508308841962,0.1784147568413375,-0.061261540375371695,9.534617042891572
3.8967423802643637,0.16794719324051016,-0.07454616945609231,9.554002188175128
3.90396050756755,0.18664741282504818,-0.06829804832519723,9.537118088454545
3.917501182627408,0.16941603036169692,-0.06643287047797222,9.554575819137364
3.923916619079094,0.14972972931578934,-0.08029385257248695,9.538390290302427
3.9370584609405253,0.18340201261683725,-0.05981817733767378,9.536720673042812
3.9436338390943484,0.18079334286762228,-0.0575919780280061,9.519935617538474
3.9576659836171872,0.1707592316003657,-0.06262047705199605,9.534054618141642
3.9641486087534767,0.16907026653135854,-0.06244817747459082,9.544268243138273
3.977294216194939,0.1699550517558674,-0.05494103363189804,9.526895076766849
3.983687939174933,0.18377506280125785,-0.07168121336408433,9.542230151865864
3.9969099697313712,0.1790714151472703,-0.048139810613589316,9.542682757689118
4.003294908189003,0.17071646731812043,-0.08338196191323259,9.543085100329613
4.016488553424026,0.1626340354306197,-0.07754111017163506,9.538897653976358
4.02292972329653,0.17056819154774225,-0.07225004800915678,9.52656624082125
4.037024994998244,0.16600058802625858,-0.07067958957813829,9.544031354615596
4.043558733912737,0.16374964132520994,-0.06497756387564758,9.545665468517031
4.056772309947015,0.17410529514582362,-0.05611994523289717,9.516339437755036
4.063099628762604,0.18607960093767695,-0.06378571249244087,9.554857420196356
4.076357932092101,0.17763386222654748,-0.05884747946280037,9.538120560309153
4.082697255112614,0.16983941456170215,-0.07344127838391468,9.534581915293266
4.096004234699021,0.1674525546170581,-0.05572789036410549,9.530530006702723
4.10230678725107,0.16947412741898749,-0.08210726095392631,9.53333771483902
4.115648703438834,0.1781841258551814,-0.0563671743643998,9.555411477222556
4.1219096619425875,0.16660229760095654,-0.0780984815571185,9.552141233914636
4.135216356167213,0.16119554193342175,-0.06795551221227196,9.544615335153988
4.14149085127819,0.16289742535592172,-0.06168268548821465,9.54611480693261
4.154815347262479,0.16306237620892122,-0.08058997613026446,9.559196670399734
4.161650858576366,0.1638951325288485,-0.07548470952377469,9.539465511561945
4.175608114298668,0.17515057326301656,-0.06815695573990521,9.543340030152471
4.1815268340322085,0.15311430849585725,-0.08052243415711402,9.533691505533827
4.195727719450977,0.17714937278544257,-0.07156356862598805,9.549412305284196
4.202326726892403,0.17873287379549122,-0.05753112634104721,9.53114026944782
4.215717407270819,0.17334189551137644,-0.07091405079489346,9.535237286400493
4.221888953887032,0.17276083780173002,-0.0590747868942894,9.543295423502615
4.235323727540275,0.1612414387956912,-0.06567663127403624,9.550237700712417
4.242450899075492,0.1574011757511816,-0.07805179508676596,9.523865049026686
4.256862210983028,0.18346380231243467,-0.06620603023947576,9.534548120170383
4.2634582288077265,0.15842048082907276,-0.07289605051049323,9.542358883297675
4.277726025676186,0.17162078911491435,-0.049189183275735786,9.55035703361951
4.2835668197674694,0.17017145598856134,-0.06717706236972455,9.542326234556597
4.297287700022843,0.17540447898476222,-0.06732205511171502,9.544709980086148
4.304224853106168,0.16914919807700396,-0.06967811046251857,9.545964045331742
4.32025851981114,0.1776942306050194,-0.06807001590911138,9.534139232003888
4.326766998958047,0.17908625501038256,-0.05579896493278118,9.54137924897354
4.340815842572626,0.1771626099443369,-0.06732217075366666,9.536035444526497
4.34744849045412,0.17836854862224083,-0.04500622971051731,9.554840865416677
4.361144944727969,0.17468672059231138,-0.059074131353958025,9.54130886051592
4.3669420830576,0.18282817012764357,-0.053084412376495325,9.523207151709512
4.381453031201059,0.18068577990635687,-0.053226652138129237,9.526342340422843
4.387690282931213,0.16805783437096708,-0.0665185641931829,9.536483437194054
4.4013102366489925,0.1505224863838952,-0.08450362589187778,9.545985094457974
4.407172319256391,0.16566448605599748,-0.06703700794022277,9.540679014859947
4.42097137696619,0.15814714714791564,-0.07731558701101725,9.539368753962705
4.426697363236763,0.18416557420955626,-0.069337443589196,9.547563551849008
4.440468440641841,0.17035543416572468,-0.062334061159199566,9.532630130834958
4.446364889270158,0.16448448142715044,-0.060448386909890774,9.546977404534141
4.4603386061494295,0.18018184180650043,-0.06363786534692807,9.53081816554303
4.4669305714392005,0.17822738773620986,-0.06765195193805343,9.537433138481155
4.480864257948682,0.1688795748352787,-0.06120965788202905,9.531931573743957
4.486563156106039,0.1623841289932285,-0.04514408877377305,9.524282794809983
4.5004385438371965,0.16102000849365822,-0.07707960236395184,9.536414281698145
4.506144881094021,0.18817222802519035,-0.05219746005525209,9.542553046739512
4.5201017068126355,0.16964413077315726,-0.06353556155891113,9.533555423121147
4.526634420925939,0.17062127817261524,-0.08627963060696382,9.534366021493648
4.540741298324454,0.16669946796270188,-0.07702894767383102,9.554766269455389
4.547159218654402,0.1850818565506892,-0.06262875355668929,9.545191064243337
4.561400634675745,0.16256969171020674,-0.0668281560988862,9.52190287821281
4.566859883494293,0.17050230400322725,-0.08071634239820476,9.538246722365352
4.581798172863934,0.1776479185378957,-0.06899840994395381,9.554509246328841
4.587550531723458,0.1624065497782954,-0.08463373633542863,9.522901085707373
4.601568368339906,0.167548734723655,-0.07165664378371786,9.52481609467709
4.607152618121049,0.1704955731064739,-0.05471935043561751,9.549388371635962
4.621178208530182,0.17227680156186204,-0.07007924059024226,9.536204361167613
4.627439254587827,0.17729934041938028,-0.07173368540904063,9.539554912210342
4.641932980471406,0.1907743688653534,-0.058607338842127245,9.550175719480384
4.647340196246971,0.17628152488577736,-0.058995397564217386,9.529663490492844
4.663222265005356,0.17361767100881545,-0.06053636583505889,9.53226989923264
4.66890481286136,0.17934042680360096,-0.05410626282423295,9.534072781400171
4.683099681800003,0.17277399117360695,-0.06090358739017895,9.539427430934566
4.688486883164451,0.1742576826249437,-0.06476345601087122,9.527195258120706
4.702720191840088,0.19349014530158581,-0.07605329610146927,9.546372613692998
4.7080192270339225,0.16761008822475493,-0.056194130949962895,9.540162521767249
4.722345591987223,0.16570303888389862,-0.0705722939929543,9.533999155634254
4.727632017852284,0.18604540640527062,-0.05217773134758465,9.519775554907046
4.74198767195116,0.1720536867487236,-0.06438690642664274,9.521059595431822
4.747244943336411,0.1886126246935353,-0.05064422327526556,9.54944884890258
4.761604901791735,0.16218462104305736,-0.08122941835348722,9.543681299615423
4.766805401231605,0.1748551892574707,-0.061984968574013734,9.53585696516461
4.782124103152796,0.18714730825996526,-0.05281874202930382,9.533731495273543
4.787374079865075,0.17863531899235982,-0.0534801174847605,9.549333880250462
4.802753456646984,0.15025956863861722,-0.0743267388674776,9.515808291504479
4.808039065179,0.18924295069489047,-0.057293890055143945,9.533853877827003
4.822431492772645,0.17897998747391322,-0.05031929527528211,9.526074972837925
4.827577258870015,0.16442722705199012,-0.05768611417766046,9.52076804287313
4.842047861904204,0.17952214875603514,-0.05781219021589717,9.535800325663399
4.847945063290978,0.16815915020484204,-0.06613030976288482,9.539710419786633
4.862817364988686,0.17138489201589668,-0.07219225636089081,9.550529170827891
4.867562150374498,0.16976004067963268,-0.06888509886050491,9.52107639918272
4.8831480231662505,0.16824215991082794,-0.05559074456420533,9.543020566412778
4.888339574871596,0.1720840810041964,-0.06341845927023648,9.531237709425502
4.903189319995618,0.17663743060963796,-0.058842249521693764,9.537327143448795
4.908926018328519,0.17333058102598994,-0.055316639771046366,9.54462709067638
4.9242299807385885,0.17835385455532232,-0.04646477403579088,9.544529766565923
4.929587138676379,0.16247217246626453,-0.0675892552534369,9.527926565367283
4.944733075567635,0.16764527686995595,-0.06114355744014971,9.539933745119079
4.9502940221005085,0.17886422616088685,-0.04783022039496236,9.539834149856397
4.964718414033801,0.17844355826318553,-0.05815463670571487,9.512104862625275
4.969833741678074,0.1817615152933718,-0.06375663006563544,9.539798981587863
4.984393318974515,0.17584798738218038,-0.054361407192679255,9.542095010449138
4.9894288859723686,0.16583746797574214,-0.07917412172757346,9.536705220023492
5.004022534064322,0.1756636765250266,-0.060283999667669175,9.540067149112621
5.008956894942415,0.17022896559780218,-0.07042229009238848,9.512316517579556
5.023644574873996,0.1694509245584109,-0.06260753556212824,9.559695297876695
5.028567944661944,0.17657825308852027,-0.06840787410480774,9.516825420920158
5.0432882487458555,0.17926285253564953,-0.07383406948300335,9.545632318348774
5.048180126331663,0.17680616873183327,-0.0448608908709618,9.512418243033165
5.062911711893226,0.17692178030772132,-0.0765674171011674,9.540020628625033
5.0677195179429795,0.16433154225104002,-0.051813162136993975,9.541186192689507
5.082518594776974,0.17332313131703686,-0.07822914765305841,9.537146626391529
5.087337281434278,0.16769530325700738,-0.053923763397274935,9.527745905618461
5.1021524864474515,0.1731700922814044,-0.0619620142020961,9.533841269971582
5.106964886926888,0.1777890178317059,-0.06498701077761049,9.5462856274844
5.1217561697857565,0.18387856259716148,-0.05991464287536154,9.543345499411155
5.126744565319458,0.15845709729928736,-0.07580205853265122,9.521531351571504
5.142511849749392,0.1665761639261586,-0.054952891107312794,9.542898678508015
5.147074729855451,0.16796818755102516,-0.05819533688320308,9.540833001531757
5.1620476020772434,0.1629962169253213,-0.07819491871866711,9.540875924205551
5.166655363411831,0.1693593718180799,-0.059726784108352485,9.535355334811321
5.181685131495125,0.16095174030392423,-0.06728452775755238,9.523677045798854
5.186267768119438,0.17190078490170788,-0.05935700237903874,9.558221189288137
5.201329757754543,0.17279683989226888,-0.04237652767219365,9.527589705874695
5.205848132135945,0.17213589672929097,-0.0679602494695225,9.51754518151795
5.220892450566452,0.1801507045571957,-0.05625594140797138,9.542500544235592
5.225406259599557,0.17847837137514794,-0.058527906321689076,9.535179382964063
5.240564305113428,0.17265747091638556,-0.07516815590682965,9.546793543629525
5.245031306959806,0.1735899680638288,-0.05591831935264285,9.530555894214976
5.260214386692777,0.17669905074233772,-0.07198587730437803,9.539899633245534
5.264626830886323,0.17332911292213593,-0.06160220325718605,9.547059174760626
5.279826777766536,0.15325790371716386,-0.071832064641846,9.527374030771433
5.284115113759895,0.16786722764685083,-0.06607617042864117,9.533977234136387
5.299823178555462,0.1795850305843674,-0.057104909934592,9.531679062823237
5.3048841289022866,0.16164081021000026,-0.065738710526786,9.539210134247003
5.3200030386986334,0.18223137629275418,-0.05842260060824698,9.527005591827173
5.3243975017989715,0.17651032629570731,-0.05177903367559671,9.536763041767095
5.340426385888719,0.17387660253188372,-0.06567637194071264,9.527737139736095
5.34498204011546,0.1882043420623532,-0.04586791439634259,9.525701311468287
5.360285242458554,0.17304382847784464,-0.05587690930642662,9.52792398148196
5.36456882714885,0.16942908823329303,-0.0731794200086881,9.541102898287816
5.380123552842965,0.18485728406316515,-0.05839498204079491,9.56677647580771
5.385315932484117,0.1661331329191281,-0.05300047513963129,9.531418772885997
5.40046204505998,0.17789421931786487,-0.07388284934319661,9.520520399738736
5.405001145537449,0.18112319367916802,-0.06589714955168076,9.550043981114932
5.421349017198267,0.17163716835609652,-0.0569763650983236,9.534112175230657
5.426362693122955,0.1841716342776077,-0.05179044461177381,9.531786707777453
5.442357898087628,0.18496451551305132,-0.06260894325982265,9.52699206312727
5.447043619287937,0.17728300957426482,-0.05936348401991144,9.527172010360632
5.462245153752509,0.1797544644363449,-0.04883339384304709,9.547318223498703
5.466814272673799,0.1774323045200335,-0.06941732164266666,9.53745638799604
5.482772647289377,0.18274413201092873,-0.05848076675589339,9.531619655407143
5.4877798928654205,0.18082942845190075,-0.06386124261126203,9.532725402903754
5.504682457093199,0.1735209460698907,-0.06033823808927256,9.546596967881984
5.508683890561961,0.16556959549296557,-0.07331267881512823,9.525742717655053
5.524315941195524,0.17750964186319892,-0.07081563436704726,9.534205191913307
5.528256127433616,0.17415268702144154,-0.05442750372312124,9.553872862312534
5.544326682496233,0.1739326535103921,-0.060805159490964204,9.522055736636496
5.5490458325599885,0.17364695264690766,-0.05610923396253156,9.52589512371733
5.5644544834228205,0.18352622462731452,-0.05757850774765857,9.544040914128272
5.568600696197352,0.176013494212902,-0.06765439870793885,9.528501970194059
5.584117400794571,0.16396478844994064,-0.061369491626207855,9.541662961677085
5.5881542085503435,0.16001024614489445,-0.06602961643320916,9.523993209509253
5.6036939659617016,0.1607006068584616,-0.06745353616568872,9.521681901509567
5.60776806590013,0.16777277860597184,-0.070091562475676,9.538087936661423
5.623305378301934,0.16893677640982255,-0.06319716064087429,9.5180776636893
5.62809668718252,0.15650703107154418,-0.07372518718232345,9.534998757961256
5.64404924862081,0.17415713729976373,-0.0556995365706449,9.550624835656594
5.647891936428967,0.1757912777919598,-0.04376410900111846,9.517300328386487
5.663657683425561,0.1774100014595291,-0.0701848621359536,9.520830806991409
5.667509560972433,0.17934598269992172,-0.05462585818288496,9.550956652235381
5.683222434820726,0.1631143197711029,-0.06890571450346024,9.528977640803445
5.68708336179755,0.17570028385800637,-0.05798157410664838,9.535868585056317
5.70284677667072,0.17533468522173845,-0.05482566237361286,9.518574300187861
5.706793562796901,0.1704576142591964,-0.06115042912333067,9.524416285189826
5.723518613688589,0.17627828932121697,-0.06023626299760494,9.539784109296882
5.7272355558329355,0.160984134525482,-0.05457502878516226,9.521756172702856
5.743177070221525,0.1712422942672772,-0.06585709118416107,9.532699286370667
5.746840407688234,0.18542880053236582,-0.04422357719705787,9.53131747012957
5.764238339518675,0.17818214634201224,-0.053269892025110774,9.531134418827081
5.768506936517383,0.17352472227948643,-0.06119328345162706,9.55610917526661
5.78468195473776,0.16994788919729337,-0.06219949122378836,9.532396729885503
5.789624541422335,0.17555497838322195,-0.0632257330068265,9.520141617064628
5.805902478088257,0.17184375141854905,-0.04584499972707869,9.537738464959697
5.809644173392706,0.17216886925292632,-0.06674319563752397,9.538200840569434
5.82558893350115,0.17271568695522893,-0.0573191637119924,9.524100269973227
5.829254242227851,0.17847572256298797,-0.0614197945223154,9.534999460678792
5.845233762242625,0.16775763610476352,-0.07478496002969734,9.53269838297947
5.848852522117234,0.17446554482262497,-0.06300917594645626,9.529773660038128
5.864820649947258,0.16088006127890242,-0.060158630221561454,9.518844838986833
5.868395020618235,0.18447516674013956,-0.06584050523178066,9.515145118779515
5.884467124401719,0.17800666836385176,-0.04804081210410635,9.541723272718976
5.888017397438124,0.164492884584553,-0.08373550451227049,9.541743559652307
5.904112294836652,0.1814136055772691,-0.053531009667841994,9.529531139000175
5.90761102868619,0.16256814716440232,-0.0681269966067051,9.523001622885497
5.923883333553958,0.16322181204627065,-0.059327223610515845,9.525593512115273
5.928460763901504,0.17192845877108534,-0.06020168559422438,9.53418503393751
5.945335878596557,0.17946452681460134,-0.06835089899409919,9.548087206026343
5.948838696022613,0.16294071913428126,-0.05500632407246663,9.529047773096064
5.964908571624142,0.16430561597202611,-0.07309958200303111,9.53457335291579
5.968998317651974,0.16766268141615548,-0.06208915707207093,9.5432499633319
5.985704167743828,0.16311411619599886,-0.0666292444865038,9.542812182814087
5.98900092342346,0.17017478149001156,-0.05998088397676641,9.540934977253494
6.006340341409831,0.17296281921654874,-0.07243633930311676,9.553214847646549
6.010487164012692,0.16530230274770966,-0.057976388249219954,9.54627922627243
6.026906066787115,0.1657968759593968,-0.07001446474857054,9.551412001567297
6.030081297961089,0.17548753501265163,-0.07582248160663692,9.543174226477888
6.046510803427129,0.18573023931786603,-0.053956781420579095,9.536951064917712
6.049698351632111,0.17739440429138617,-0.06226251057331965,9.534030410428095
6.066124270114596,0.16849338233328287,-0.06757266936903454,9.543819153164085
6.0701821783168715,0.1774242989027947,-0.061073766670801416,9.51379822672614
6.086790845379988,0.16626993988147631,-0.0798859729793542,9.524268022877756
6.089800318515792,0.16291791042137166,-0.06740356141589962,9.535139066968627
6.1067089246518504,0.17886555164382675,-0.05910424745869722,9.521553775347218
6.110561861964259,0.1691813970957873,-0.0703467612963205,9.537620137720443
6.12695059340429,0.1834345121948213,-0.05423706346177543,9.533785943118795
6.130109943664191,0.1868419309040121,-0.04677042661341597,9.525205617749695
6.14662766427792,0.1749239717689119,-0.0714054112380227,9.523622467666206
6.149680872689611,0.16886940600246503,-0.06424179391579563,9.549564903785752
6.166237447119175,0.1726520223527175,-0.07767037016122055,9.556429411062414
6.169172794765966,0.17669888591059002,-0.06523303332545213,9.522520114759402
6.186530911470201,0.1984432441255924,-0.04396499347100521,9.534255393451241
6.1899369422035875,0.17654073709181248,-0.06011243934145167,9.524670887102763
6.206422841419785,0.1558230419984694,-0.0708752669950335,9.528282434073036
6.209480043739884,0.1776175277414667,-0.05125472982742943,9.513992539886738
6.226090228295284,0.1720653407592429,-0.06376895156090993,9.518687036576816
6.229008275929428,0.17990532681793112,-0.050407844932822854,9.547138310825677
6.2462892845029625,0.17490311761981467,-0.05204891864127303,9.522468361242604
6.249780882614033,0.16283502616173515,-0.06458334404380935,9.512099054116518
6.266302363703178,0.18687552800986193,-0.05223910591259982,9.542400615814426
6.26930083588407,0.16577502895464194,-0.06535342604993317,9.536439109716616
6.2858994604134475,0.18256015619103372,-0.056463372905772864,9.530183518392347
6.28886909757296,0.15533435208531735,-0.05991859210415713,9.526238125142944
6.305557893566288,0.17730621052772383,-0.07312537122210075,9.532838150430075
6.30847075479463,0.16661642826686557,-0.0653253867302259,9.546757238621069
6.325206572805163,0.16182147940215436,-0.07931117457099446,9.537047220612394
6.328076966108475,0.17484083314298482,-0.053326838071714455,9.537172078531972
6.344750005064368,0.15787305148841704,-0.07726797293721276,9.508874795048877
6.347606108399318,0.18499447539945496,-0.046874567515175186,9.548042862209982
6.364446614490018,0.17297390400351886,-0.07836241901733716,9.54233920584709
6.367226238897164,0.16341939014520798,-0.08405964370801074,9.551326703687222
6.384087702719344,0.16901371902612256,-0.05907039398372481,9.52316141418299
6.386840209752727,0.16470292766026978,-0.06135437749971897,9.53375943943646
6.403652275862702,0.17940990648203858,-0.05257454750722559,9.544435112093574
6.406387509587377,0.16814817402429078,-0.06915664632078593,9.531526757961705
6.423305635018087,0.1859979649896101,-0.06333928909407269,9.52419187831329
6.426018941884486,0.18988473810853887,-0.049491310064512656,9.537433999667352
6.442896207069573,0.17371435661931905,-0.06294641692213507,9.533282901095115
6.446232962779846,0.16109412631232398,-0.05976624702661924,9.52172721719682
6.463688272403067,0.16861983644774048,-0.0585459423981328,9.541352678443197
6.46612004993552,0.15937979236190972,-0.06682718945492246,9.541794663638132
6.483236703947769,0.16302178439439358,-0.06331545093154681,9.527966494690524
6.485685085469048,0.17054825573435253,-0.04781204021817897,9.52879090351552
6.502931606287453,0.16322710966518036,-0.07114432947883481,9.52911311906634
6.506367755326479,0.17787088736115345,-0.057597470247493024,9.540315247008472
6.5244730354449425,0.1830230371221789,-0.04676070682011193,9.549365533862963
6.526941497408983,0.17140936706381232,-0.05609133746228611,9.549501320334322
6.544037941390586,0.16467567528909882,-0.07583988424406182,9.515762199910135
6.546283161335079,0.18196896793350137,-0.046678375748900575,9.521158742584253
6.563739956482915,0.17305947636183386,-0.07171445146099201,9.52470155504122
6.566070760293529,0.16521089211180365,-0.06389866960769748,9.54667651607115
6.5834058743050745,0.1612209152693477,-0.05903953802355816,9.522000587811185
6.585662819340227,0.17409104922262675,-0.049319710508390555,9.527982487824934
6.603066535908383,0.1767281718787475,-0.05620517067448298,9.517220721448181
6.605125491210132,0.1794147612013944,-0.07127826825089528,9.54065193544953
6.623778061439337,0.16134464094145679,-0.06536007931473195,9.53749854734053
6.627007599104563,0.16201330965595256,-0.07917525024134986,9.54410473703577
6.644194348576881,0.1761079974924937,-0.04067325316130801,9.532128247941909
6.646484926324675,0.1626452664375676,-0.07728469129256431,9.537883475897987
6.663807365998038,0.1721205660656821,-0.05816342439422833,9.539130064793103
6.666060428361856,0.17767028701298773,-0.07161749012454849,9.520495401264652
6.683470036349766,0.17436458933854423,-0.06451632294626156,9.547249543670135
6.6856567124687345,0.1709766752124545,-0.058687724771940175,9.5254096638925
6.703125348837264,0.18356063867000852,-0.06770372667280111,9.541245543957773
6.7052498778622835,0.17960787688672633,-0.06394674190557366,9.521549686817531
6.722712523452751,0.17263496697442443,-0.08102786075848867,9.534752393233525
6.7248016967891395,0.17249572480193354,-0.05618911461223274,9.551714213602336
6.742364688033289,0.16467217159731853,-0.0839400508366937,9.538052720289258
6.744402800846343,0.18579319217140533,-0.04487315575185958,9.530109113784457
6.762019140896413,0.17425868075568657,-0.07315080152746346,9.527964030648148
6.763998039741013,0.17787843956557134,-0.054358543748863654,9.553545000235014
6.781615868749514,0.17064968263056515,-0.06118595839203947,9.542550319096044
6.783533221435856,0.1730375275421926,-0.05783929509810508,9.530552684218458
6.801287357855854,0.169690001547688,-0.06235848153103641,9.531205123382026
6.803079449112446,0.17230101499928782,-0.07019591285799154,9.525919053678653
6.821305668448756,0.17228657291178825,-0.05851412591033013,9.539079654234309
6.823854863319557,0.17665914064539798,-0.05100150434125056,9.52961276653598
6.84145379964463,0.17379848160234027,-0.06579431533542794,9.527734707606575
6.8434023850118155,0.18899209065020403,-0.05668289862794916,9.53760423432305
6.861108961010342,0.18212813957569374,-0.05940777691124803,9.53859919438566
6.862921908782518,0.16777189533225106,-0.08292442394096412,9.522334766982784
6.880614166444277,0.16698543177247618,-0.06039484131872612,9.551230891761211
6.882715102184113,0.17515975092829994,-0.06739013206231179,9.534530807119772
6.902456896775574,0.17466326125600962,-0.06251609581483307,9.523212465944471
6.9054321338935765,0.17051363627485652,-0.04925545177870525,9.531761452600497
6.924701786623635,0.1776367931847273,-0.055621071837072496,9.536951111348655
6.926935723375897,0.17475803749628516,-0.060638240379067634,9.54790605556392
6.945692232862741,0.16903248815181895,-0.0643781871366301,9.517552586013803
6.947110295852914,0.1776926782505882,-0.06661395318594943,9.541306369254274
6.9654319674596605,0.17622621538512895,-0.04901042733793976,9.54064534425702
6.9679226158390755,0.1631003457362506,-0.06159855196507387,9.52029988541713
6.985852275324401,0.1654906234886574,-0.06700997595387685,9.528915549967367
6.987460731816981,0.18527034108133103,-0.05202968616739617,9.545906736902987
7.005510260644449,0.17207483784048075,-0.059405701224501624,9.52085353319171
7.007061371787719,0.16888536094811835,-0.04896944953642977,9.537699192426707
7.025162092047519,0.15533368762384525,-0.06711662078196108,9.520168679308206
7.026662391065289,0.1785531261203814,-0.0677773150626885,9.546712912538306
7.044746766474959,0.1780097314779792,-0.058605800983878076,9.527783052229402
7.0462469928103415,0.16705639956845908,-0.0810609715911224,9.544657500699033
7.065342679379825,0.1665760131848034,-0.06813620153553543,9.554569351917673
7.066798132272352,0.16450845357902352,-0.054293372129843226,9.54267477781287
7.085022926130086,0.17288110680379185,-0.07545117567019606,9.532746296964927
7.086394598182574,0.18415079527018305,-0.05100336863816837,9.52617324682341
7.1046745624051395,0.18366337262655671,-0.06106006356769789,9.524632320145766
7.105998985526331,0.16852705154033393,-0.05330367278618225,9.547509507005524
7.1243238218099965,0.16247188782694477,-0.06671319390901694,9.534722355577326
7.125556144166554,0.1723269945099621,-0.0657230673026348,9.542761458299445
7.143903813438286,0.16504697472061064,-0.05366563786682496,9.51659600810362
7.14515751134002,0.1901814976781413,-0.056107125276158076,9.524065266474993
7.163546336625028,0.17992211825386195,-0.05780069467343709,9.539620221060956
7.164776047696605,0.15719247200685993,-0.07977682089999953,9.53382695108629
7.183160883462636,0.17413894188908188,-0.06155852974912168,9.527322964949555
7.184523095898945,0.16836024087082074,-0.06180396479254668,9.53922658009822
7.203895950107256,0.16340238147190653,-0.061754467264844806,9.527779920298649
7.204829494971544,0.1791436030740305,-0.06845206386457173,9.55339163775778
7.223270961784947,0.17396186552692666,-0.06371793410867858,9.525820774172256
7.224561952993516,0.15957788450707097,-0.0694036599834377,9.53791813374191
7.244085806320346,0.17478510728992153,-0.06378892432963244,9.532609489863578
7.245121748476389,0.18351692796964342,-0.051439865447059765,9.539356904682046
7.264771017765601,0.16931492305646337,-0.06836082109122564,9.527881923265634
7.265538746483753,0.16214586552307078,-0.06597273110176663,9.532230031943763
7.284831039189483,0.17780748093743812,-0.04669911607455213,9.530355637418259
7.286814081618914,0.17526102311003022,-0.05295492959172719,9.53642075987293
7.306092843070386,0.17622789049379156,-0.04820173144218973,9.522039794311233
7.306775695570179,0.17124207644879247,-0.06592714343765171,9.524433600206901
7.3256297107496735,0.16738807643421905,-0.04504964974033819,9.541542689704237
7.32636367355812,0.150891271679143,-0.0837606532565794,9.529207150112825
7.345277633576175,0.17357012473379055,-0.05885371977589706,9.520826205522361
7.345968054491795,0.17810892340836335,-0.05359366185809185,9.512813563767617
7.364931095262459,0.1913542046039664,-0.054937505598018764,9.53583362077151
7.365552334281488,0.17939979104988954,-0.0537120959619005,9.520235228341448
7.384511673558188,0.17501197455688702,-0.05319649449360074,9.526481493826257
7.3851028200123325,0.16750924961544675,-0.060611634313905885,9.532070617639917
7.4041402833950265,0.17286104936436258,-0.06360214562516375,9.544325051256278
7.404734647200056,0.1660754053574023,-0.07515544340483911,9.544443877097144
7.423801587412228,0.17583034015905843,-0.05218049731085643,9.5432837401446
7.424340763742552,0.16263371539492782,-0.07014493442301428,9.517760732085655
7.443407627711892,0.18389246900877473,-0.06317087073064545,9.545514086872416
7.443880031023418,0.16257370844814079,-0.0525413228786508,9.508173733124378
7.463031844701633,0.17077082003258517,-0.057641001180052186,9.530907983597878
7.463483755951511,0.1804113435058616,-0.05035781037911551,9.51096724147163
7.482611353141736,0.1814794338733197,-0.05750378063291311,9.53027894937083
7.483693364060126,0.1689660909609649,-0.04602864159999308,9.54464862482053
7.503415486154859,0.18078296558477328,-0.05701461402187047,9.52470234797877
7.505223277891685,0.18235472411056083,-0.05338306889096572,9.543235530842095
7.526124518507665,0.17518723596228802,-0.0585525284038938,9.520226194392944
7.526083231627979,0.16335550673729826,-0.0726058623663739,9.53071073640297
7.545649514859406,0.17003958540497716,-0.05797566812447415,9.558213298176462
7.545691910571005,0.17229441629472694,-0.05705390886012439,9.523567898428242
7.565275021032854,0.17581440600350237,-0.05924902660187989,9.518100161922698
7.566581939618814,0.17904420885235342,-0.06486417173637796,9.531672361876652
7.587559020886249,0.1695422813532584,-0.05969564320157569,9.53855221027139
7.587850101806977,0.17621427119224842,-0.05889656675839081,9.545734727387682
7.607970907696068,0.174251706449123,-0.046613121418734575,9.544810927102507
7.608579982284463,0.1699135560062769,-0.06536817195944256,9.516134149290487
7.628172509757247,0.19374539882095923,-0.0710546094352878,9.530535684639995
7.628092719767252,0.16685021073777892,-0.055054435911485705,9.533732534897252
7.647787627967762,0.1751578653388338,-0.07408966872235688,9.536557979307277
7.6476337590761245,0.18188843526162315,-0.059295041551291436,9.538636232633982
7.667463827801042,0.15964444385948687,-0.07190302299547495,9.524734898696112
7.667212677625528,0.1753446178365923,-0.051208215527941386,9.540210008422179
7.687140185314733,0.16593338536091798,-0.061489574857160806,9.53365968665716
7.68678653868101,0.16667615616150977,-0.06952602221054138,9.531560920202239
7.706795630250667,0.16046452161808913,-0.07515949607567766,9.531737293516784
7.706233034574778,0.1559682491781463,-0.08204428149027664,9.53070045059263
7.727123942148752,0.16742387648475443,-0.0642765773284594,9.52611530114394
7.72689732965201,0.1755062198879256,-0.059042448521141905,9.534843386098009
7.747664903549198,0.1677967751133709,-0.08320282918920052,9.532168638293896
7.747536505071564,0.15935062188604884,-0.06495239553812003,9.539933301994251
7.768161441290709,0.18888343615574466,-0.060211484481791165,9.536201746568256
7.768275002840907,0.18264188625479275,-0.051683506883594146,9.517527022857545
7.788155225962741,0.16988885772537132,-0.07716948864139583,9.531533353000034
7.7877586163322565,0.17461683713216053,-0.05846826324963686,9.543576070027276
7.807867318600506,0.17297054394895237,-0.05982725525644678,9.517252946308325
7.807311953000265,0.17948238122700053,-0.058865797716287735,9.546062725206607
7.827570957409683,0.161513629096519,-0.05342983230612621,9.531929805556658
7.826830087047978,0.17396113980541747,-0.05753419754304297,9.518009390428881
7.8475738816008125,0.1848007747428673,-0.060406671938122186,9.530970791180193
7.847526427886266,0.18629793876982445,-0.06501633019707842,9.537714032157128
7.867787450476526,0.1745825067184231,-0.04904225992032585,9.522026563492163
7.866982278949537,0.17589253174089997,-0.06902577651732202,9.53166470428895
7.887742581521493,0.1854265411683817,-0.04655274146269677,9.534176207556225
7.887759323842233,0.16391694763673842,-0.07343677201121833,9.542997072974233
7.907919535569327,0.18294874883534107,-0.05781550917494324,9.516503127102995
7.907523387384293,0.17852810532228977,-0.047937468066459946,9.534836435667618
7.928737960077035,0.16079229517530286,-0.07054268115694359,9.529121957831743
7.927757738462704,0.17919209803902839,-0.05936577189820519,9.53158676595232
7.948315988900739,0.16759566386894104,-0.04669768393547385,9.547119478944586
7.947281638371597,0.16710235988174413,-0.06951950028609255,9.527973774529231
7.968047628261309,0.16814347331733628,-0.06022195681589531,9.549995350803885
7.966923789754632,0.17118415245259333,-0.06525956487933869,9.53899372901812
7.987617582523684,0.179479347158,-0.058082255490104075,9.51568404229998
7.986498800347359,0.17456351734355025,-0.05587505126476268,9.53961568440855
8.007164003542583,0.16943787988345999,-0.06995044611890054,9.522013316892037
8.006616445030073,0.18841930513625185,-0.06373499831101914,9.534095015491086
8.02805459977877,0.18036539854565173,-0.05510583815461777,9.529572233671864
8.026545798711046,0.16446784685501542,-0.056704613877156425,9.52171306726837
8.047659217880739,0.1707294291497837,-0.06136602327642441,9.532768955749665
8.046162831641748,0.16897564473149196,-0.04544788921601554,9.507319843068366
8.067282465192536,0.17005439002748046,-0.06639138383134831,9.549683590056606
8.065690274381357,0.17680768297467017,-0.04945543858801423,9.535165814107739
8.086902697359736,0.15974793027624865,-0.07302425365277689,9.53368362709926
8.085182826925875,0.16921783678440958,-0.06873523916844433,9.525080697238678
8.106569224739467,0.15783974217775296,-0.08563573800049658,9.527227570328945
8.10486361105456,0.18070653590148056,-0.05460651015299438,9.554009973911066
8.126251290097338,0.16524156820653474,-0.07198483803941813,9.527497151117128
8.124403098508365,0.17785621631519385,-0.07086479517337446,9.555889492322612
8.145847244969083,0.17238790916838245,-0.05909868983982275,9.512319073554334
8.143996297101676,0.17214963780521703,-0.06576269784080047,9.535355740286679
8.165479586531347,0.17785822179593053,-0.05428012202154471,9.551513231192029
8.163801807128404,0.17635332215187682,-0.06260194172031566,9.51652238493416
8.186203515251316,0.16904409336312143,-0.05791768175710852,9.518691029260085
8.18399978374587,0.17205301932319741,-0.05295727245027332,9.53837270166623
8.20660276242018,0.16485552213727653,-0.059455589672766894,9.52342013074391
8.204712609722955,0.1753785508753979,-0.07242441584425337,9.528472519226275
8.226493670491188,0.18233697083950223,-0.04922544133050807,9.532230821516078
8.22423794448799,0.1645419933865399,-0.06363562486888995,9.537702108681053
8.24614092836186,0.17674077835834898,-0.06819169585028784,9.540981074515749
8.243702396762098,0.17730603892170138,-0.05544023922608163,9.512580780481242
8.266375033361367,0.14781401033249242,-0.08419878678907688,9.526919236214647
8.264306418629038,0.18055174424836049,-0.07352718588977952,9.550883853650106
8.286190518017442,0.1754013399989118,-0.07267398153319285,9.539555117625502
8.283971801234756,0.17159996476294168,-0.07845468535200455,9.540203316937795
8.306060966054366,0.19325845562716,-0.06027715162827186,9.5362030766778
8.3035383962739,0.18434006097010103,-0.0506245364771353,9.51946979006321
8.325743857493853,0.15801053087451705,-0.07854563419231024,9.52464656567096
8.323051458414133,0.1746001917562508,-0.05091766024963465,9.546086126263013
8.345365149373732,0.15320000905130016,-0.07512111921340715,9.537506315549564
8.342623134357138,0.15920641243154002,-0.07149844589088258,9.532269874875468
8.365044730245177,0.16231252486220896,-0.050219153000933325,9.522609283238344
8.362198021567156,0.1661370461547859,-0.06712075293341875,9.530496448720093
8.384720980226561,0.17609211159433283,-0.05289040172920256,9.53289707185258
8.381691836756387,0.16995978364912506,-0.06622939159879822,9.517701063701777
8.404339198276807,0.19063847852144003,-0.043537573534359164,9.525775431840342
8.401290553418018,0.18336366687214617,-0.06536652847616665,9.500635166314474
8.424013371703188,0.18370999901421517,-0.04707417770309294,9.53402086876642
8.420873951576588,0.15633058017993515,-0.0741784432906079,9.540677268425867
8.44367882273477,0.1688199003685465,-0.06853690176344601,9.545343461521393
8.440467610361633,0.16726263162861746,-0.05703276888564359,9.515187133136461
8.46320791695587,0.17875328390617692,-0.0736196064033499,9.541565184736298
8.460845053397783,0.17431801250858156,-0.06311860374598689,9.538819643083732
8.485180164263996,0.1769979473029909,-0.06999962861277584,9.525595610088391
8.481394307748753,0.17190820118112,-0.06134684641878735,9.539572027423413
8.50475036553028,0.16711549476973686,-0.07986944211876436,9.535757997812167
8.500950156388743,0.16317230485233425,-0.05428244560372831,9.536894823070016
8.524410586493847,0.1659586845312195,-0.0753321222972549,9.519537547118198
8.520549459037179,0.18470873220045353,-0.06388540859716635,9.56240512881281
8.545624605767893,0.1614511682758601,-0.07763530995509657,9.524484351074896
8.542205670776424,0.17828077598963576,-0.05159915519148266,9.537593489513116
8.565638378286422,0.16779995980930637,-0.05914108058168192,9.522041112193651
8.561688620788983,0.18909548553586894,-0.06652196971475674,9.540525545747233
8.585352182135711,0.16617780180883754,-0.05869364369401686,9.523031399231911
8.581242347919659,0.1714744262960888,-0.07379848299324453,9.540549626462875
8.605047774786863,0.18168196687157293,-0.049002236304650136,9.536502826643025
8.600802536632298,0.1601994387654216,-0.08713160657567717,9.5420494588622
8.624682826964685,0.17260224539166374,-0.058781328517296796,9.538756725754888
8.620270697552268,0.16336352260984097,-0.06735375841236156,9.529548749897225
8.644374855000592,0.18094111700453497,-0.05424890099641731,9.554840878855822
8.63986641828169,0.15972453016415547,-0.06420128780175687,9.53844885704116
8.664054463674667,0.16214840175655626,-0.06140628093771701,9.542141272679432
8.659451745846084,0.174421536818742,-0.05023834662679938,9.550086289945156
8.683639948559613,0.17189001991446465,-0.05655936262777505,9.548109121111576
8.679150025014902,0.17113257453451827,-0.07177527936502641,9.545461682231387
8.704436032545432,0.1706912304194895,-0.08178872133739012,9.52858381177205
8.699375530153548,0.16439965053567213,-0.06541895975744873,9.530050795424987
8.724133634614946,0.1787101653342424,-0.06777534483732757,9.526285115006266
8.718940134582112,0.17981766604998128,-0.050936854793728364,9.53481805842397
8.743735319871444,0.1806598226594371,-0.06842470017067621,9.529166358999593
8.738674568080798,0.18865503131249106,-0.0620258877049772,9.552740866506488
8.764577483808516,0.16275820833637397,-0.05551589938677121,9.541841095053936
8.76063711662337,0.17483573982209089,-0.048196492979682065,9.540380788114234
8.786265972052744,0.1705565599282619,-0.059545688383627095,9.549869215931135
8.780458493702431,0.15917296056957178,-0.07468405671076649,9.532876815914182
8.805853644399535,0.17385285694830369,-0.06469855675439208,9.540649753654504
8.800064526624176,0.17842378825541116,-0.07648120592488646,9.53954950989769
8.825590358591251,0.18073760808639305,-0.05014961377210746,9.555411261553258
8.81964502269639,0.16881155207947207,-0.0738271039961661,9.522571822355452
8.846225685290081,0.1893560884431426,-0.06791004837643387,9.536946169193342
8.840138684334088,0.18321612753387229,-0.05129389377464492,9.544982797190377
8.86598987479924,0.16697273925822603,-0.06548161186275878,9.541333738623868
8.859614048568403,0.17623127239689074,-0.06155279372740758,9.531502883278739
8.885645897666054,0.18504579455146972,-0.041292127767198185,9.532597075021897
8.879144702730558,0.16621450377900782,-0.07814157590060866,9.53223101072264
8.905366012086022,0.16778295746922436,-0.06106438394103611,9.54053773329253
8.89867799038988,0.16632423292325543,-0.05941824621833784,9.542582943893148
8.925086629787018,0.1697881724661823,-0.08152279138655917,9.540790944671246
8.918167420113786,0.18493400709877753,-0.057172554913311656,9.544713938838797
8.94473484851514,0.1682188835239337,-0.0636022848257112,9.527265057286606
8.937702217498073,0.16944068846692684,-0.06804972599514195,9.535587363337369
8.964419428150793,0.15759872281832812,-0.07422943414684882,9.530547497590486
8.957894245700627,0.1601530883481629,-0.07346392227615478,9.540847207197771
8.985274210646429,0.15551788304897446,-0.07145696667097938,9.540166612448386
8.977641909360317,0.17320685495427454,-0.055581598976341906,9.51278800071912
9.004964522140678,0.1740167397520721,-0.05980067576982253,9.546415921135145
8.997180331219072,0.1823924509611114,-0.04769563323501849,9.528941801613973
9.024657676068045,0.17062098123832717,-0.061990594511712065,9.54333498684108
9.016628246296415,0.1727542449086952,-0.051351368954705365,9.54526458460722
9.04437602150676,0.17256163799511423,-0.06918251585405248,9.522755569047753
9.036144040395731,0.17065475251874318,-0.06247044996584111,9.553771028940352
9.064117669726203,0.1628257608386879,-0.07372070877653852,9.523468274278148
9.055655842432117,0.17013047597684672,-0.06327638455379239,9.544202789738158
9.083840474190799,0.18196356981345801,-0.06124004559402283,9.521299817241696
9.07507749217175,0.18777747964576064,-0.07983653013075598,9.532632326173557
9.103477948170262,0.17902088232650418,-0.056146669475045964,9.547282452919957
9.094590663918751,0.16573143108776736,-0.058935855272020096,9.541433521613401
9.123325525157522,0.17065021952191603,-0.04939260120481447,9.521104244746459
9.114945425724416,0.16764395514748434,-0.05715216417831044,9.550581924816614
9.144098320337354,0.1644535770630624,-0.06585409326161026,9.54358781327922
9.134520306142653,0.1779840981307237,-0.05568652843629035,9.539609688298384
9.163853651176217,0.18833590548271897,-0.04658893472958992,9.539756309495898
9.15395531467915,0.16927274667044784,-0.06759077971297131,9.55426290225153
9.183571924858443,0.16653117010241697,-0.060899598962717266,9.536954092337542
9.173335208447336,0.17119661741957795,-0.061496989475631064,9.532218627382813
9.20347864222003,0.1548254330291657,-0.06847567288650581,9.539276905760612
9.194757078591996,0.17422101846271296,-0.053234139546387074,9.54983995456186
9.225107848848879,0.17824296397334227,-0.06263003965200013,9.523065354739918
9.214290431188296,0.1543847791752386,-0.08359389423903374,9.527269125938245
9.244790156827877,0.16973939588956097,-0.05836685325576758,9.551675014460681
9.233698445594113,0.17302599232897908,-0.05524363036627963,9.532714020523056
9.264825081812235,0.17710230015555783,-0.06919486306705988,9.518588987457116
9.2542452313459,0.18036755359466144,-0.06496278931764256,9.536260533354728
9.285368766480394,0.18268607176196036,-0.04911315281339789,9.532849390481964
9.273661426115153,0.15458680089186277,-0.08341481349386203,9.533987375144859
9.30525288785864,0.16631382204965495,-0.06675969581436071,9.533255204155195
9.293027619204112,0.16828265314452523,-0.05184308929686328,9.537397874056202
9.324993366283275,0.17211790098593088,-0.07806976547905575,9.542255025136535
9.312452907252219,0.1840606640904703,-0.04706027419714161,9.53830790084515
9.344745046197986,0.16660809683900868,-0.0631467499670508,9.543040933085335
9.331883610464725,0.17788837609421262,-0.053033140747755066,9.54399435941756
9.365567995668975,0.17492020394611948,-0.05609406591944788,9.539427881162148
9.352301190988484,0.16839484965236465,-0.07480939703482306,9.522306819610577
9.38546277050884,0.17557102999410543,-0.058596118399069544,9.538222251097155
9.371638844343037,0.17248256028514874,-0.059672052586825,9.53916005573513
9.405127970200232,0.16828297032119985,-0.057242123188116216,9.515544420291318
9.390961173962594,0.17512215785717275,-0.07379500376920647,9.530829926446346
9.425112413557997,0.1671742122248355,-0.0811441648461764,9.541183522147659
9.41113022828411,0.1649736289534507,-0.06418010770037634,9.532442172634196
9.446016228952645,0.17641388093338636,-0.0611593023098357,9.539531903865713
9.430731759733375,0.17418361326721135,-0.06776586179848701,9.527975407358078
9.465918551910683,0.17710524867716915,-0.05294855654813276,9.544079063441032
9.450091087610796,0.16519273711025254,-0.06916505503681046,9.544853470188212
9.485808437474224,0.1701296066660369,-0.06041766246211452,9.545250735273948
9.4693734775121,0.16909199826141488,-0.06439977585021972,9.524204273903042
9.505658078366295,0.17030415689095837,-0.059740898394538805,9.54007585702187
9.488832251732731,0.1709116199068189,-0.05553109101295838,9.540554509866675
9.526655654110622,0.17268924271966196,-0.05759065650069213,9.512042310390466
9.50892888655078,0.16350728896984323,-0.07454264979962241,9.540835545142198
9.54659706773609,0.17517626065378006,-0.056316577264196414,9.553674549686288
9.528223187637352,0.16693842195383812,-0.07202662952786275,9.534226549265174
9.566573643970239,0.17360443900996897,-0.0556744877854872,9.52883545390841
9.547461190014742,0.16477103584400693,-0.056831536376779186,9.520664626739858
9.586497637075695,0.18473649339747908,-0.05227468355277504,9.544122015660827
9.566682838591158,0.16389790508783555,-0.0636094169097237,9.539780355802426
9.60651949089775,0.16643175685049888,-0.0756523451548725,9.537917100258806
9.585926695977985,0.19262029037746145,-0.052691487596786206,9.541222127477296
9.6274540246665,0.16651681192277476,-0.059237273468521874,9.559284001792436
9.605995436247737,0.15649231267137623,-0.0756837021390612,9.542803620768295
9.647633096452202,0.16733936843056482,-0.071286722893687,9.557607179897074
9.625223176306408,0.17885474929913936,-0.05212185075565072,9.538255260925867
9.667690657161762,0.16271682823788527,-0.08070319834792865,9.543569982635171
9.644281328122926,0.1808957649523667,-0.05793245107864891,9.533967127522319
9.687799867014878,0.16481869724166606,-0.06339739486365424,9.523999435608903
9.663371316969796,0.18568022381686397,-0.04850753254456699,9.538537600257854
9.708027093897913,0.1644611670064787,-0.055047736700330176,9.529812403538799
9.682380777390751,0.18415195865804732,-0.0619516130453128,9.53014331728049
9.728952497682693,0.1869707273892012,-0.057524174062378655,9.554051068600568
9.702495766550808,0.18199474343457675,-0.06149980806291574,9.5394581487648
9.749427027294312,0.16246376042517327,-0.08812207896329617,9.545443406026811
9.721378999145735,0.17496642193476827,-0.054182813924263135,9.535870505189395
9.769677365708818,0.1726429402822132,-0.07218089552518175,9.515507915631458
9.740373305801484,0.1667333940883032,-0.06370409386919541,9.553467669298941
9.791133930820282,0.17736776326984144,-0.058244178094785756,9.530160402035916
9.759987789889434,0.1739183287860567,-0.0719586346053135,9.52836394034619
9.811607331403037,0.18508023179454058,-0.057471716715052565,9.542932866565378
9.778688896137863,0.1741506306931118,-0.057183826616391646,9.540904570775874
9.8326344166128,0.15865647774389946,-0.07976761318442334,9.52165366633987
9.79853122216413,0.18394526910572012,-0.059290599588220944,9.53541890726482
9.853645160899259,0.17016778457548248,-0.0727892023148849,9.552416399513262
9.817041237974891,0.16883267744133632,-0.0812546582154202,9.534433723071889
9.874413405109769,0.17897186136064494,-0.04619546443986957,9.542261720189433
9.836372397115666,0.17490654038032125,-0.06028216992358385,9.539583055840975
9.896285803156786,0.18512377089001605,-0.06150264016270286,9.520737380518167
9.854701224571935,0.17330111343768048,-0.05088562372360107,9.531052293187107
9.917224170903003,0.16816254236458217,-0.076808276277528,9.51976516590498
9.872860145730273,0.18757895205196323,-0.06400248664433374,9.549199737896387
9.93840086506842,0.17650262972001113,-0.06093280298828559,9.528465854449903
9.891611277612974,0.17610947688040832,-0.061767510558776856,9.506629329298296
9.960862942475917,0.17445324193953687,-0.05040863333025132,9.527587621282382
9.909478142415406,0.18080524522863,-0.05447616156590541,9.531620662098645
9.982475052892754,0.16372052891363895,-0.061920951762509856,9.536473664036352
9.92762073119049,0.16974700283082392,-0.06088835037350578,9.541521741593751
10.005580376903929,0.17371539106404785,-0.0529963398223292,9.54405016186821
9.944861431915932,0.1658778936653451,-0.06882890169266212,9.519110124275795
10.027889277013026,0.1699115657533253,-0.056933001469017766,9.538759089930565
9.961420427197531,0.16277564135324524,-0.06687447555452739,9.515765292075855
10.050834128341062,0.16639547293777301,-0.06819811155572802,9.536117545467516
9.97739849415036,0.17474759850740026,-0.06273557448503266,9.52355759943807
10.07449488885621,0.16942462926168778,-0.06698816833597633,9.53971762815942
9.992521483936846,0.18647193035483015,-0.05487458041611558,9.52006875894703
10.09959572507006,0.17956039573273067,-0.0649437514025436,9.52226180573121
10.007763063255643,0.17022513254340058,-0.07403252789826899,9.544341390146279
10.125838676275905,0.17831945921669037,-0.05782300052389055,9.530645021680039
10.020139068140917,0.18991661473293708,-0.07156494403045721,9.51568329808338
10.153620119567158,0.18985111866933052,-0.0532971653611374,9.536570821183442
10.030256214068103,0.1637082547292828,-0.054441746886136996,9.536386660908024
10.184398609984113,0.16388559847829517,-0.06324682398793643,9.542959557342275
10.036620057690266,0.20111498775882933,-0.05057918936587993,9.537764335392813
10.220048764720879,0.17628031155322454,-0.05465766139487035,9.520791589995488
10.03672695483124,0.17176731947043358,-0.06087804486078603,9.540424770999035
10.26599965014039,0.1768160162335032,-0.05286747157331539,9.532838407098208
10.023970984031456,0.1840451264919196,-0.06940012028840782,9.537819054806778
10.331179718626,0.17489655730888065,-0.08446094151571393,9.533965900305505
9.979952239806877,0.17812968288324055,-0.05180279408628971,9.530204601238196
10.452620470958008,0.17662122115467258,-0.07427024463152605,9.517386570294212
9.81643508841316,0.1870404312333604,-0.055155221422913736,9.537963878988482
10.89891379616757,0.1762604099811859,-0.06535073707928417,9.548409251787243
