Time (s),Acceleration x (m/s^2),Acceleration y (m/s^2),Acceleration z (m/s^2)
10.722370853719381,0.1792493558785006,-0.048060729144518,9.535676806405482
10.78098743313633,0.18281821166003434,-0.0551169306282794,9.518468392820175
10.74342868475459,0.16049121602776645,-0.05902344069088,9.522826019612246
10.799229605353275,0.17145820842533746,-0.06658260408680994,9.545501755940284
10.764318634886791,0.1828603676170144,-0.04953809412008851,9.534835400574622
10.817541697065428,0.1806293271072776,-0.06375110579821319,9.522007368997453
10.785141888670271,0.19510318192862863,-0.04683708225929143,9.53195475325952
10.836028987075139,0.17061588350556298,-0.05939231070571508,9.529882343553645
10.805856558142576,0.16560127859148774,-0.05418045629364258,9.540955853053815
10.85462410712737,0.17891499550842646,-0.053710695827806014,9.515321407996803
10.826451622897194,0.18596197805886858,-0.06254892290661096,9.540744661931273
10.873133342572316,0.1718594243313995,-0.05978820480861042,9.536461726645161
10.846971412085278,0.17748189391566258,-0.061866698910519775,9.534503489193444
10.891983751347231,0.17436799243287554,-0.052985576315514905,9.537949751612778
10.867424264526976,0.17904198839826183,-0.055114388825727945,9.514650600337916
10.910819358548114,0.18709679933733914,-0.04730931301859531,9.546533516888394
10.887800979153822,0.165916320214726,-0.0645441147005106,9.531092286526977
10.929653956891014,0.16289136857643807,-0.07323494837555101,9.55148941128339
10.908062660322933,0.1800138829104459,-0.0624969553975313,9.527272585678228
10.948760925609987,0.17654479162525097,-0.06652989175799025,9.526321694172164
10.92942420631708,0.1759885975254692,-0.05789667057865728,9.531809027993031
10.968508609563942,0.18367660106957712,-0.05037476155490301,9.528431853252725
10.949524974329266,0.18953140355808776,-0.051834765113670946,9.526785186748475
10.988153664666513,0.1776977968806833,-0.06065466506757393,9.544702569243183
10.970925248722383,0.17927806895755424,-0.05615007220249984,9.546172269709377
11.007528657296687,0.1673252259889025,-0.07470570885244518,9.513269668423291
10.991106268699209,0.19722830804487476,-0.057005563200423805,9.53398164882223
11.027638651399243,0.18625559916043546,-0.04773978076890009,9.524193683512147
11.01212086952096,0.1826410584467067,-0.06390142354955565,9.520373300327622
11.046803053018124,0.1875909461940064,-0.05686270091141705,9.537431224553378
11.032098200542887,0.17518632097673315,-0.06426868650696574,9.544726425698522
11.065938930563854,0.19210349288721704,-0.05568469800584504,9.534207872111695
11.053168680047586,0.262212570028,-0.05464235095568893,9.536206865712057
11.08613260628584,0.3728983902513937,-0.05885498452152988,9.537832585502917
11.073228081890013,0.4589339999682336,-0.048795347072356145,9.520090570533844
11.106202154359782,0.4366850222660874,-0.052630063449955536,9.52160134006639
11.094277652347316,0.32818376869865834,-0.04691830750083855,9.513389834067166
11.12551858161689,0.19329254709221166,-0.06887516376795096,9.55035850612174
11.114263540263718,0.13111845716265605,-0.05205422102192454,9.539580901056075
11.144787846315793,0.12216715396358319,-0.06776083561542859,9.526993872891772
11.13424730235972,0.16225875370552947,-0.05348093944989769,9.531886503840685
11.164056767749702,0.16401117357391568,-0.0555595251713781,9.547696941047123
11.154143406748007,0.11120713998380362,-0.06278504639605667,9.531228236670234
11.183282639487079,0.03263150398941909,-0.0626964254533795,9.548374207431051
11.174094354706595,-0.02251512818887955,-0.05821994814290314,9.52984555084138
11.202626970678324,-0.04254035925054413,-0.06524300730157115,9.537086106689197
11.194023610699798,-0.029067353200493622,-0.05448683032369194,9.50641820289947
11.221915513469424,0.015718662901743452,-0.06127964710420599,9.520541647056953
11.213912410855844,0.031541450556840864,-0.05127175297368847,9.530230350845626
11.241213021526617,-0.0630553470730077,-0.05006137874959919,9.530165026387625
11.233844202866687,-0.12674438357519152,-0.05244598590041829,9.53861358011038
11.260498688088495,-0.12418933929228296,-0.05245848156709394,9.528784651572314
11.25419281237313,-0.10335508245940199,-0.07858523064959584,9.52657106953519
11.28105783769558,-0.0072295895906467214,-0.051834415967427695,9.5256890642898
11.274468746632024,0.08027800239893076,-0.05774944813009916,9.517508000534427
11.300272558456792,0.05580563200444735,-0.06206176431624553,9.529608356689343
11.294367975121139,0.06576784614349664,-0.05999023937891733,9.536475985698763
11.319547117841346,0.004788566252626265,-0.08631504389622477,9.541495430902895
11.314662047042454,0.0313353453408391,-0.0519578567075746,9.549448659099934
11.340182746789536,0.10775159237637956,-0.05559523864215333,9.538509407679829
11.335881140342162,0.20010448917241114,-0.04340411366381171,9.534282458852108
11.360553300597035,0.2294798201522949,-0.0670585812041081,9.517092010824411
11.35579203168132,0.26388612063317424,-0.052314768060436175,9.55047774458883
11.379890158493335,0.25676802425553374,-0.0613249661215712,9.515997258623125
11.375661158817838,0.30377048500376014,-0.05725011233932428,9.534568283234329
11.399283995280125,0.3552883839454921,-0.04610113586198439,9.506350757726718
11.395528608018997,0.4442038339497291,-0.05616424103656513,9.52125570612146
11.418635628054295,0.4963918213868289,-0.056730180363147885,9.540850707496134
11.416045853510486,0.5195791228691965,-0.06097825990465285,9.513019214202338
11.439132185756238,0.565181222295214,-0.04460684703738545,9.523552537000029
11.436895198066075,0.6419238278305055,-0.05260932760108548,9.526287747731025
11.46074500612159,0.6612874481075438,-0.05075238616064924,9.51244034147169
11.457721888956106,0.7501314411161178,-0.047309981292713126,9.533597076840898
11.480112395456151,0.74063282542094,-0.05500837186121697,9.512868527445793
11.477564636714819,0.7269711777586354,-0.04597416140385962,9.544181055234445
11.49951608984434,0.7006527396804749,-0.05248947867214387,9.495727777897876
11.497301194164224,0.5620869966723993,-0.050865754388289754,9.517680727472808
11.518941859245535,0.40441096773605684,-0.0609770950149797,9.536478307628565
11.517160285455255,0.34931738596498074,-0.06714977460183487,9.532094952679602
11.539347362295992,0.3775319331998434,-0.04810666984549823,9.541749554504998
11.537801493912749,0.37965179049104586,-0.05759588167933507,9.505787388332054
11.558908900282216,0.36134884426130215,-0.058044218748467005,9.508336783000383
11.557590948308016,0.3027816581516346,-0.05345087297388983,9.530745966154575
11.578409837861997,0.19363806088535201,-0.062292936887051266,9.512206138398398
11.57731225994407,0.13593195985537238,-0.050711476670114324,9.539655297586854
11.59787753677287,0.04734392701446614,-0.05121070715366282,9.521663372922745
11.596899511194435,-0.027674187458389756,-0.051840410532145026,9.547397236381785
11.618488297119468,-0.053908507033394774,-0.06423064770753642,9.524781470413807
11.618924344440597,-0.09717037689773515,-0.0661860255258125,9.541104422535891
11.639775434381313,-0.20112785917531312,-0.052805704747945374,9.529761675728409
11.640819437409794,-0.2773727239957006,-0.059329235473998605,9.54342551232313
11.660094071312566,-0.35174382830477835,-0.06387781194030251,9.520917060405734
11.660460221061507,-0.41701896966349233,-0.07305697001302465,9.538926192270006
11.679656291477565,-0.6453148127488196,-0.062419553535543945,9.51648767355774
11.68013178959304,-0.6908704299770222,-0.06634762837034204,9.551566239168514
11.699122801349116,-0.464764950290621,-0.05406054980166633,9.517779357759563
11.699836836074043,-0.3824884858956196,-0.06325816276199582,9.509465189456813
11.718674821313845,-0.32497662031587804,-0.060617747373846266,9.522088239922507
11.719500394983374,-0.28045304480384015,-0.05534386730523405,9.538285561191321
11.738740432934259,-0.30843403170387385,-0.07172506206872224,9.520671023166145
11.740411359788581,-0.3322836670081835,-0.05550028641611963,9.520930406367324
11.75859021113841,-0.3472497097987716,-0.06164665911210839,9.525029532906197
11.76008176248143,-0.314952176529292,-0.05331123225129679,9.534133626695056
11.778077693004551,-0.23552846050636825,-0.06027739774911597,9.519486360820785
11.779743923005958,-0.16868809095301993,-0.06784473563348656,9.508165643371026
11.797610866493153,-0.1103087468475957,-0.060471468856608396,9.533303511253862
11.799468573029834,-0.02436654689467668,-0.06710635423855213,9.554169905015884
11.817141381672295,0.05028754490264282,-0.05585628905705185,9.52247666042018
11.81919842779813,0.09995301371699292,-0.054954909011632795,9.506229515921847
11.836628527178817,0.24313627954789652,-0.06366351642390101,9.544356909824534
11.83883506899392,0.376126261430568,-0.05425380789503425,9.520708655552678
11.856109891346634,0.45526087168117685,-0.06413663611861901,9.531640065992953
11.858492386793692,0.5457031244794386,-0.05337995583004967,9.527880812103664
11.87654867536651,0.6743891762263395,-0.04389134690207617,9.535309987533228
11.879284380027293,0.796017953534182,-0.049182962156094835,9.539924334093788
11.89620588458288,0.8705356655024189,-0.04361442830213333,9.499895951749176
11.898970797210078,0.9044630190164598,-0.05114153243843352,9.518256034319384
11.915774059183237,0.9449636371600827,-0.05242529121429637,9.527143300016638
11.9185956400561,1.0053023452243512,-0.034631193309064084,9.510728888348966
11.93545651466838,1.0652263510181552,-0.054573753939119916,9.52915649133144
11.939459325961074,1.1859375636222362,-0.042777856226979945,9.506481353878051
11.955686943836055,1.3064965631215346,-0.03270217669542744,9.529240457253207
11.959064102759786,1.3404253439604545,-0.054153212621778364,9.506149825189473
11.975211337608155,1.0983755756284836,-0.04804161263471366,9.508492948519184
11.978707799309337,0.833213533502768,-0.06203712369752153,9.548953094755943
11.994831529234066,0.7770913018180233,-0.06015679335755669,9.540379599449782
11.998476672905872,0.7843818180312386,-0.044953480476795545,9.533208389046543
12.014335293578613,0.8021250716024788,-0.057067501962692765,9.494583592789128
12.018120478072149,0.7391574630144886,-0.04234628112236703,9.518208179309493
12.033828476327042,0.6423900568144122,-0.06339211728239368,9.523239371191158
12.037834690984289,0.49029072283584024,-0.05375555427942087,9.53854431124096
12.053324142066657,0.3537108563350986,-0.05082463268744004,9.5031238667911
12.057525197169184,0.2070794883614492,-0.057335330517221894,9.541885147416597
12.072887071925205,0.11360051459793326,-0.05447158443122562,9.525899540654194
12.077590846753575,-0.058353236681734505,-0.05336953877342146,9.51860443435961
12.094537241426663,-0.26637165051809186,-0.07595936188614373,9.534470850711784
12.098805957657973,-0.3659810110806364,-0.07397649362911322,9.538761854429431
12.114951710783659,-0.4409313920396328,-0.05249293801529251,9.517717997957227
12.119529602786136,-0.5426374638801178,-0.05861460917494106,9.536991124830823
12.135399048944503,-0.6429214689835135,-0.06421629318921883,9.506710568839246
12.140275800089139,-0.7621498181847296,-0.06656677838684022,9.53371149762809
12.155061300747793,-0.8406355630391991,-0.05751182589823397,9.536348766844231
12.160655212086919,-0.9042534266208408,-0.06709067404336491,9.510371530353623
12.175589549680744,-1.0862395300591687,-0.07434156436343205,9.530922654257669
12.180772207055245,-1.0160622710055922,-0.08430125384809135,9.547915764733082
12.196305407822326,-0.6889364036662234,-0.056225635505312364,9.539599850934975
12.201160301004512,-0.44597774793875283,-0.0710335773407432,9.510664659321426
12.215687901112455,-0.48684386907737265,-0.06743174486161153,9.495665165720627
12.220819169109342,-0.568077557970108,-0.07111802695008373,9.536647155955647
12.23531911146999,-0.5991287225861923,-0.06266297985007357,9.541844430066263
12.240530184718224,-0.5110403919348045,-0.062200097799860625,9.533537289330019
12.254879777834377,-0.4462097315333005,-0.07801568273297137,9.529952298860211
12.260221371679762,-0.3419080569291519,-0.05986097805212256,9.517778674420054
12.274449961066898,-0.21382576314855561,-0.07955995378241427,9.530819010025061
12.279879994877732,-0.11644016266561538,-0.0568515445198576,9.53055123644253
12.293944161883665,-0.054209003688453876,-0.055379784973786976,9.512269489800676
12.29954419629881,0.01417731644254908,-0.07574457635866387,9.542092046226951
12.313517734350539,0.1846309124915673,-0.06025638797797611,9.492941914075152
12.319228963354632,0.2788280017786074,-0.050402746414169544,9.52988090234448
12.33308825906713,0.40114991587735754,-0.05083370678186603,9.510896184668564
12.338901256027881,0.5707279798603375,-0.05075504176471398,9.52755531548825
12.352553624552497,0.6835733311718468,-0.04929499300274933,9.528194989334004
12.35884918534151,0.8043269313503352,-0.04816259226100099,9.522801482316595
12.373654384880068,0.9449577168482544,-0.045256613696907595,9.51725014629986
12.380252556487896,0.9224636957138774,-0.04982756212812963,9.531766982728712
12.393716832775858,1.072017885073527,-0.04747661775711884,9.52026809527287
12.399854487266115,1.1517713512548775,-0.04794291114763733,9.525259002351692
12.413278915450743,1.1799085391287074,-0.04499338760860234,9.52568494311723
12.419528463085017,1.1889830102622196,-0.04788006389474174,9.528399168035182
12.432861351526844,1.2538007686946846,-0.044042050616540464,9.518363952132313
12.439202476394282,1.2850595999144983,-0.04597182723011136,9.508555679860194
12.45244518197948,1.4197866861391686,-0.05017017612781386,9.51357904132297
12.458836018212729,1.3414652689822615,-0.03301523600150427,9.515393507371797
12.471959948770763,0.9971837151425832,-0.05433990710403981,9.496589957833871
12.478481925548019,0.8303593966306292,-0.05496226184839906,9.522443954648343
12.491517511535077,0.83237727722103,-0.04346555141562803,9.529953523032768
12.498173247579194,0.7479204202881756,-0.056410078295497115,9.523437231703145
12.511131296168967,0.7141233408614203,-0.04472739919173652,9.520089495031536
12.517791610563217,0.6046331326195107,-0.0590077709456324,9.519212589747795
12.530725907698042,0.5022099935353203,-0.06066395294197995,9.522236693983942
12.538483379186202,0.3888122649104304,-0.049644681744002175,9.53250872185887
12.551200242588928,0.2973288743640266,-0.060488655656231564,9.518008370543953
12.558099375292779,0.1662163040223466,-0.06549939150238059,9.507812374136634
12.570725840267535,0.061574287010362466,-0.05320188427980989,9.537292278301265
12.57778817023034,-0.039766984376578655,-0.058183698851922934,9.530235069389523
12.590382584396192,-0.23050382528930743,-0.05834528853836949,9.541996576051368
12.597398494663466,-0.3598956166721373,-0.08527093592605638,9.526319343483513
12.610312673079049,-0.40532393911758285,-0.07637684301632043,9.527651265516736
12.618241243911854,-0.4849367991693526,-0.04688938528157302,9.535506097619427
12.63039903195935,-0.5980917755410554,-0.08235082818296975,9.518185574279538
12.637757470802795,-0.6857284365547065,-0.06388468733178718,9.5193483564161
12.649955946322752,-0.7845857927115107,-0.05099929505389496,9.522654320970362
12.658213258100337,-0.867278797361735,-0.08708737812570563,9.511275947638614
12.670620799129642,-0.8800737632849429,-0.0584977376305148,9.526280046408104
12.678031988214098,-1.172037178855104,-0.07762826500092775,9.510648189681314
12.690180426372686,-1.0260504369140637,-0.08919826435692631,9.552049930088407
12.697710832170245,-0.5957304993385972,-0.05160753773206151,9.538112790248313
12.709764263737114,-0.4180475825864465,-0.07958368131365835,9.504049423291375
12.717372428072652,-0.5442499008632286,-0.07001662235120673,9.508529776892365
12.729284504093185,-0.5964344868820002,-0.07668758041750418,9.530202648353
12.736966010932722,-0.5300239371508045,-0.05273427123828968,9.529687481051164
12.748865033643677,-0.4713822391271785,-0.06396295831490353,9.51194050443619
12.756672210362519,-0.42228727093487123,-0.05586900672739705,9.52894152726187
12.76844046335114,-0.28180280617790476,-0.06285929105825606,9.535992933321157
12.77641981231766,-0.16257020565233174,-0.07966723668253078,9.51973910668561
12.789026296284124,-0.07314954432137957,-0.058833028942383785,9.524970059659504
12.796964429331846,-0.018188505096004854,-0.05200556268382772,9.526240514908443
12.808595608617512,0.12962153971909232,-0.06343833137134769,9.525002608095457
12.816598741091013,0.2395432404920973,-0.05085483310337858,9.531021261384076
12.829129711754593,0.349607375031677,-0.052995879849625414,9.534416984322355
12.837188300436333,0.5187843413021522,-0.047456795493562735,9.527093724882944
12.848765673777462,0.664921926151167,-0.05236095607910683,9.541921437757322
12.856792679096266,0.7427083248607105,-0.048317937061705854,9.503821336689454
12.86869468181854,0.8820179902923204,-0.050722959264204774,9.518778698090403
12.877623437184926,0.9662176045966171,-0.050973132602565314,9.52525787474568
12.88881794996604,1.045185172929261,-0.04815954020611097,9.526449095075174
12.897239315310427,1.1110721409119608,-0.04784488807102783,9.527135986641344
12.908379662196397,1.1170772666765592,-0.049810826723279945,9.528758468306526
12.91670617129058,1.195977668753117,-0.0410955815943594,9.512045973615571
12.928006182652654,1.254012920175731,-0.05360501549182821,9.540029373399573
12.936454657496077,1.284657411833261,-0.04629514540428518,9.496639962960687
12.947593030914748,1.3543809032184466,-0.055086483225774974,9.535460767386102
12.956119993221538,1.3863396786584263,-0.05234142320510107,9.52430053161717
12.967154630566473,1.1236666413946272,-0.05161207410439097,9.502330489651488
12.975783535394315,0.8592709956323443,-0.05060889363076734,9.525022294934738
12.98674280209429,0.8297304351414138,-0.045904764022141206,9.52806775087548
12.995374393475345,0.8105428330766763,-0.055380989917881755,9.525721021304504
13.006319618964811,0.7894890932835729,-0.04259149219752564,9.49958878687333
13.015040581721667,0.6993386507485654,-0.056705308560238525,9.505496496127892
13.025911500731857,0.575222613926157,-0.04680402187708847,9.548676675137916
13.034706343795513,0.4100427310903161,-0.0550653434556865,9.513609324588264
13.045474619182048,0.3426300955319285,-0.045327825737998005,9.543992454799131
13.054298604951228,0.25704380739195487,-0.05900775239359543,9.510298688843497
13.065033451901522,0.10818616673220831,-0.05745499052541291,9.544948600808988
13.073897714207407,0.020281714973258737,-0.0584408622630376,9.528221719298907
13.084658069227181,-0.08831651835191404,-0.07197622771103615,9.531831046607758
13.093608911733853,-0.2775064218011987,-0.06855237019536545,9.531992078718671
13.104246226271643,-0.38159265524942887,-0.07703713169339511,9.523865199119491
13.113217287018301,-0.4129341043380717,-0.05390615371308538,9.524967833328693
13.123778798198211,-0.5500791164429357,-0.0502267488642069,9.547003922919753
13.132873618413496,-0.6643407115247195,-0.08904030993449434,9.520273987026599
13.143375030749116,-0.7025063232168344,-0.051025858797354995,9.531131978021847
13.15253374007328,-0.8587611323481489,-0.07396226279382602,9.526752745216466
13.162970527300821,-0.905503953426955,-0.07125068656662248,9.542258385709147
13.17215477189637,-1.0346829745768533,-0.0827499219284942,9.51560147031039
13.182464967963222,-1.0542264428764991,-0.08773276493815885,9.51814381363792
13.191723771746759,-0.8089120250201468,-0.06474212514626157,9.533392632813033
13.202105745280063,-0.5790982575903274,-0.08110138449057028,9.532491644267248
13.2114172557141,-0.5013884484069735,-0.050519053341430906,9.528693851946231
13.2217281615719,-0.5721494766990415,-0.07233533812346907,9.504358084416998
13.231048020953558,-0.5855575948757338,-0.06149114079875698,9.552683045343748
13.24121382367149,-0.562602402434936,-0.08414459161105299,9.522740421893506
13.250725425148612,-0.4637803056468902,-0.05785530683377141,9.543156372964738
13.260816424718636,-0.39238223050316595,-0.06532944252520383,9.51081809739219
13.270411989720131,-0.2688499038621622,-0.059210621293597276,9.52756209823785
13.280327901173665,-0.14584253225851562,-0.05573589305415695,9.548470406098497
13.29047496363749,-0.05215935152646439,-0.04364177689271647,9.504301115984887
13.301152127630425,0.0473602366430139,-0.06943525989026722,9.525470172313067
13.310573696486168,0.22930751272129782,-0.051090732642814204,9.531823632731347
13.320655151756872,0.27290980952837585,-0.05520957409735277,9.533469793145267
13.33018581268033,0.3732190773668748,-0.055141078844405,9.542874590732183
13.34021209512883,0.5293739605884629,-0.05716509491249753,9.513386210603262
13.349853332169326,0.6671794063885912,-0.051865874416710395,9.521148138741014
13.36065494579798,0.7661360617809979,-0.04916450770846124,9.52417577407502
13.370558897794904,0.9348645643629696,-0.04658232966248723,9.51893345510118
13.380288876712847,0.9763492552829867,-0.05608783306231165,9.494600453296888
13.39050031242103,1.0722731847088667,-0.0384544871095705,9.533842192465618
13.401054157138693,1.1432442608735507,-0.042671442556375595,9.506983696380761
13.41072271040142,1.1643737194234318,-0.05176747445209124,9.537765314033818
13.420608262000775,1.1739453657115209,-0.04213614795410768,9.519651558852507
13.430364950598102,1.2830236425566919,-0.04703808306354258,9.512729805840463
13.44010619622772,1.2847976513075374,-0.047379301330732225,9.504260643692097
13.450008938541528,1.404963681738185,-0.05205792496534266,9.54854796683552
13.459726506933391,1.2993917624019522,-0.049412011270952474,9.499236893982745
13.469652612932874,1.027469303413738,-0.0470798616923369,9.525048952165028
13.479344749049304,0.8122367302639716,-0.04982662030657029,9.493879018099994
13.48919495257109,0.8051444666890585,-0.0488756275252808,9.542706867775523
13.498890443608891,0.8014281834999715,-0.05389161876322769,9.50882889128748
13.508835730173699,0.7742436995552581,-0.052763590796474344,9.526564019004184
13.519056064185301,0.6891795064115063,-0.057508918832790974,9.514207196217724
13.529643485235832,0.5697229446791231,-0.050536358325186895,9.530289135351598
13.538988916917912,0.3802425274700018,-0.06101737355427492,9.52014151981761
13.549228099528811,0.27449551583112186,-0.05667820908356551,9.538667470149758
13.558673968378907,0.17242579416738424,-0.04169920281473959,9.515009680450765
13.569827194865722,0.05114093247685479,-0.06218738012567347,9.53656423131874
13.57920328359909,-0.038009435003740474,-0.04774454747783899,9.51714889405246
13.58950318175669,-0.2275791402494584,-0.06754559800976317,9.53241434811669
13.598811686328178,-0.32575230331688915,-0.09156882682992398,9.53424658157414
13.609130196615874,-0.3966574001636066,-0.043213388413616834,9.513920958782016
13.618343893302558,-0.48107869839066414,-0.06292717653706635,9.513417920253058
13.628751579091418,-0.604743340046854,-0.05297651547826706,9.529858716287611
13.637935826113537,-0.7060081282783502,-0.08834676296958607,9.511621694787763
13.648376838912279,-0.7954701074788354,-0.052936260852523606,9.536604840902305
13.657575961323895,-0.8650555738704291,-0.10121305981281334,9.534514809423092
13.668020736074128,-0.9043089881153069,-0.07824781538716309,9.530982414186573
13.677109364851402,-1.1021207646717677,-0.07393213250467068,9.523740021745619
13.687632474329092,-1.0053525952659788,-0.08606982090928256,9.521780522249157
13.696717741587534,-0.6887757253723253,-0.05361998401564468,9.529065010580762
13.707282343508648,-0.5039866092107634,-0.06576964736812112,9.507496159780827
13.716323868663697,-0.5347301509883984,-0.06235852925792524,9.497852821652218
13.726935683846587,-0.5653171345762752,-0.058587286083365726,9.516721191876234
13.735889089150238,-0.5640724299982436,-0.05973824271149417,9.527914006786856
13.746518028266525,-0.5046602916409423,-0.06262811148814351,9.542055802533142
13.755472644313892,-0.43741240554855315,-0.06121403455398704,9.510115956244627
13.766187549179044,-0.2972116621226897,-0.0621021005734565,9.541673651566686
13.775026377266,-0.19927601135462808,-0.07371068487805914,9.541722799322242
13.786350294316586,-0.0880615741267172,-0.061091329791668286,9.50576043594605
13.795814735517563,-0.023091695774171434,-0.050819106560877673,9.5225649261714
13.80632728713907,0.11383565017539035,-0.05206329534044717,9.530765652734896
13.815378818010595,0.261224627887401,-0.05357710270167286,9.508372400198517
13.825836162564483,0.3725966194007274,-0.04998745424596517,9.522022090969719
13.83544236856318,0.4690335897426287,-0.048932813114268545,9.516752053346192
13.846594663389276,0.6205854905494969,-0.05242556597365085,9.523931316995247
13.855842219039454,0.7134554617697746,-0.0509029931039243,9.514753718015378
13.867400470580334,0.8993371192152646,-0.0479075822866498,9.553759782713824
13.876320780049046,0.9849291184745222,-0.04800249346843534,9.513927580237597
13.888146441387448,1.0573325823088444,-0.047610020339019773,9.519809343691856
13.896459714612451,1.1237797052755565,-0.0485217964091415,9.515112789623474
13.908499399823988,1.1467728882399164,-0.045249966074215046,9.513204037099479
13.917204866579496,1.185940907648926,-0.045950708602278796,9.525408057177483
13.928176897627862,1.2684045593712423,-0.048546135827157326,9.544332832665635
13.936781912430455,1.2783693732397883,-0.04493171062442868,9.502688696239877
13.947785244288719,1.35935282216086,-0.047532878000689206,9.528411098957246
13.956600184296315,1.3746862056567282,-0.04645529458425298,9.533503796276356
13.96853438460652,1.0674546452109142,-0.04700759573475677,9.524455822352706
13.97692089349472,0.8320883703777443,-0.05163482215324191,9.507578684783638
13.988107755783385,0.8008292990688007,-0.04324354643429371,9.537215822898851
13.99669525679485,0.7754462893124802,-0.04417074571792443,9.510927221050352
14.008808747275404,0.7427558920807928,-0.053402395066418695,9.511916566037419
14.017092051699576,0.676640778324615,-0.04847157401632048,9.526981416830218
14.02842318430425,0.6299408543760141,-0.05256149149629108,9.528440038698424
14.036650850741625,0.4710892196191376,-0.054721481948598626,9.52243639397523
14.048010355314842,0.3312599285350464,-0.05169526107181318,9.54441362783309
14.056259400925901,0.17067696151666423,-0.06413028588228524,9.517213504365964
14.06762107882156,0.057550313146936136,-0.049352049905494175,9.526632188176281
14.075889324726523,-0.05264872273749179,-0.0636209339019011,9.523793300595125
14.0872897417374,-0.18367523549326026,-0.062344728249935005,9.535046368438042
14.095476423595557,-0.29757085148118445,-0.07005608972033511,9.518819261793055
14.106839260082161,-0.3469137828091395,-0.06208698089981998,9.523175264350904
14.115040606575212,-0.45610445244395764,-0.05163546048810849,9.510541108692168
14.12652040739675,-0.5888755254845118,-0.07199912775967787,9.520027638282134
14.134658147317758,-0.6404843211426902,-0.05000172483051365,9.533216739417083
14.14616693429895,-0.7721483192425669,-0.08039324708195619,9.518679570262492
14.15425144406034,-0.8423970756934971,-0.04600459636478732,9.520954858564046
14.16573867596468,-0.883386890796865,-0.08541162740653803,9.516747700291258
14.173827357275272,-1.0280087253530732,-0.05927289566909705,9.51922805176403
14.185284892278615,-1.0803293916424361,-0.0846824157306775,9.531373933586181
14.193460350635643,-0.7794596972282473,-0.07669098256976063,9.532564511232406
14.20498619782891,-0.4938911631427865,-0.049091411717138066,9.520114564437913
14.213757410098072,-0.5082718541958933,-0.06165164198356232,9.514172445116655
14.225703311026907,-0.5648435568478248,-0.05926649120784774,9.520193754638873
14.233522304871261,-0.5653068587610659,-0.04381477911087154,9.537707075654922
14.245997955395714,-0.5339204184133012,-0.06936700113591572,9.526193798174452
14.254300279722203,-0.4268952703769778,-0.07311422852891404,9.52809690008358
14.265857099142051,-0.305227160376827,-0.053388078007339,9.519256493014874
14.27392238338148,-0.21942107243009293,-0.08336510290338917,9.517900240943474
14.286569937614715,-0.22798656912832935,-0.05371752327684286,9.513020674617428
14.294371554200513,-0.110093393274014,-0.05719977704755699,9.547406960397154
14.306140465098803,0.11108761031737349,-0.0680546809138172,9.537900602776626
14.31396430515055,0.29472101929211886,-0.050257592387909805,9.504183700553877
14.325787004355472,0.43083608550093183,-0.055227636867056194,9.553840614293513
14.333574941161785,0.5289060681807298,-0.05452894100499754,9.5054536028117
14.34543565197131,0.6618609506484907,-0.04903535881761449,9.531331111331859
14.353161475574922,0.7349696107997717,-0.05073920303520253,9.509300967695108
14.365005783560372,0.9005009060087594,-0.04598452256277784,9.54051178115587
14.372745910588625,0.9879637434876561,-0.04875964627071022,9.503676449475517
14.384652830625102,1.0367485356810087,-0.0485012480961857,9.515817220028659
14.392357844469991,1.0962902496935858,-0.046806353212596685,9.520023497657263
14.40429463695094,1.1174706047537128,-0.04740685265625632,9.5175841710991
14.411975550200893,1.1615083609578587,-0.046442452362558985,9.525472906717878
14.423882898487507,1.231935150549952,-0.04633680383957159,9.51903788389198
14.431534631494117,1.2592698247878762,-0.048734926869206545,9.519265794892657
14.443483863479203,1.331699173152983,-0.04761406666314502,9.541132637535526
14.451347066990452,1.417495372352096,-0.04762226826325844,9.50694436152152
14.464424844495959,1.176427544825078,-0.04695352405596086,9.508284140576256
14.47350425455876,0.8588246821710448,-0.045042477651311974,9.504875242311595
14.4858522368541,0.8114575204845549,-0.05422794348531242,9.517809973649918
14.493206261857651,0.8139961941064694,-0.04492847737897802,9.544054308246674
14.505414826555652,0.7622837149293952,-0.0528030047498727,9.510660346235584
14.51284402062934,0.6920167048646306,-0.046135768136518554,9.525588727486216
14.525084205217386,0.605401119147571,-0.05436302367564387,9.52246782419797
14.532457795409162,0.4292849652174963,-0.05261980409739269,9.514622075270283
14.544710360045281,0.30396697134546513,-0.05605388337717072,9.515602380099862
14.552027365378914,0.22225914649894066,-0.06640290105339017,9.518271193214177
14.564285848051211,0.12410858117432218,-0.04703634127879418,9.524518245655795
14.571565067676607,5.2366393485920184e-05,-0.0554890262888379,9.521818636196132
14.584429081140549,-0.16032247463457988,-0.05692203045981202,9.527204199881025
14.592344596194764,-0.27159519501002494,-0.06446194218844065,9.536326900221727
14.60448740401966,-0.3696645773741546,-0.0669468376618447,9.513447027881384
14.611894232944335,-0.4355102325539453,-0.0661245275378328,9.528311161663563
14.624173257927152,-0.5622805052114029,-0.05230856084251197,9.542720591255254
14.632367895453005,-0.6805265207404361,-0.0908744010696609,9.527267679805885
14.644823020647335,-0.780180366532055,-0.061046982542422204,9.518982362960834
14.652049531455358,-0.8590925025511668,-0.06385698412806731,9.520944982773317
14.664461273025164,-0.8786301744630702,-0.08543126419089447,9.522091990519602
14.671605940690874,-1.0780693273339805,-0.06725312702711789,9.546753233900896
14.68405735279619,-1.0908878046977772,-0.09189563307387481,9.518222461971291
14.69116516746271,-0.7721428515375095,-0.06212303679640074,9.527529322273741
14.703936011405782,-0.5528383063979001,-0.06322025495543224,9.511670227683542
14.7119038428466,-0.5299585356608726,-0.08054385013927766,9.499583799557884
14.724241339025179,-0.5643809093101674,-0.0629589151570574,9.523950032760105
14.731459018883813,-0.6023297886110927,-0.07618361606545973,9.537114905816535
14.743863284056934,-0.5149468572512851,-0.07484269287495471,9.545649763988651
14.751051495957466,-0.4334453350196001,-0.05409352395420893,9.520932893412828
14.763482427075196,-0.3342561304896664,-0.0882322294554637,9.50465454507078
14.770634664894375,-0.21459417253058208,-0.061255885017331924,9.548188209102495
14.783115879476417,-0.1086701792684429,-0.053199095088542925,9.5266403788201
14.790269327059724,-0.04178957977416346,-0.06800187584491559,9.51172650131359
14.802699876590347,0.1239646262503446,-0.060186163825715955,9.546422073667161
14.810391346058983,0.24234596446394474,-0.04073875128490646,9.517205003214203
14.823512396369493,0.30878943171055856,-0.059541444654277284,9.512193739737475
14.830366000333813,0.4608597436292094,-0.0479031566236189,9.54527267094935
14.84309576127244,0.6090922104784251,-0.05340681298750757,9.531184891439636
14.84994325869008,0.7205869677106761,-0.057095572382852657,9.519234122550019
14.862667802554391,0.8707667161328164,-0.04985701785882516,9.528109842813452
14.869561746499075,0.9568287598602072,-0.0483127058454574,9.508032895415417
14.88230694602895,0.9829152094330348,-0.048450014921772366,9.518796685545485
14.889177067469085,1.091521380855095,-0.047280738863453985,9.507525102253314
14.90194830157584,1.1243633848112715,-0.048304458347664864,9.527347222378847
14.908740275139294,1.15213365746336,-0.0481125047567617,9.50139671238958
14.921526844639944,1.1980029563694792,-0.04316151141351782,9.524993680727437
14.92834561451741,1.2752886439731768,-0.040164729823485755,9.51570135532373
14.941173164439945,1.3118613104313714,-0.05319416755201636,9.53952081525205
14.947954383015942,1.416818951567001,-0.04733828340754913,9.519177202671811
14.960828258235845,1.3300065721581136,-0.052621646281355614,9.506005667134389
14.967476911112024,1.0071285545596882,-0.04752875434792477,9.520435745939535
14.980321513478103,0.8044423820848334,-0.055359880464261234,9.516894686047157
14.98716029603769,0.8050548700735065,-0.044219855006750304,9.530101050280502
15.00001147028472,0.7779096195675855,-0.04886763975693716,9.524033013754678
15.006764451559711,0.7228822475570721,-0.05156487679918229,9.494343239335674
15.019655655790869,0.6404852293344975,-0.05219441247851172,9.53495740598429
15.026378489671092,0.5449743330532388,-0.04960729176476588,9.526265310382295
15.039210096109667,0.4043529294543964,-0.0613844160853555,9.532407094957795
15.046049185763845,0.2767084162213795,-0.05519372613262726,9.524700541011873
15.059876454674695,0.1389770199020612,-0.05894626364843366,9.512072291535182
15.066434046532168,0.04741366789724504,-0.06134808456042552,9.524480975310743
15.07949832103465,-0.05093129742433582,-0.047388518079750315,9.529357750893752
15.086179859101607,-0.2765609424405695,-0.08333967745722322,9.52987446164021
15.100089512471733,-0.40177314375877193,-0.09585273669284915,9.527393266394064
15.106754550760165,-0.4225009070895354,-0.05042013407916001,9.527800291590092
15.120679947403358,-0.5219216301413686,-0.07061687059532025,9.539711241865382
15.127329647911768,-0.6243298824957693,-0.07329002673551317,9.51453712651269
15.140368156129847,-0.7323927341859651,-0.06072493644890898,9.523621341544473
15.146953917255933,-0.8749010708663644,-0.05729023305247792,9.527135446824238
15.159961650670514,-0.8717735748736601,-0.07045121821822746,9.523571938035616
15.166869898563718,-1.036154694438709,-0.056595189871847834,9.545493160757077
15.180728130101375,-1.0935978072944454,-0.08935525655806217,9.544609695362164
15.187063381486672,-0.8371209862004265,-0.09912542041304265,9.537351874332781
15.200295587079856,-0.5689084931660434,-0.048511533289539326,9.545365504210295
15.206597598345285,-0.49248862468204896,-0.06984146783975581,9.500494930124017
15.21993115987989,-0.5358840711037044,-0.052895723464204424,9.526602708024804
15.226227071786582,-0.5551557950519006,-0.060698347271084016,9.50840796440584
15.239721203749207,-0.5265427139830449,-0.08806879573491413,9.547467302268618
15.247113583153142,-0.4216647124461264,-0.06657416954067624,9.520290517361817
15.2611783243109,-0.35482820106091106,-0.07562861087316483,9.54765718926629
15.26740102590668,-0.26233931107329755,-0.0775058002601941,9.539368816166357
15.280890697828026,-0.16246381744145902,-0.060114521498370245,9.515965925315193
15.288122544769392,-0.07637519987148529,-0.046152974490824124,9.539255456690714
15.301261977162833,0.06814022781233887,-0.06496536131078781,9.535322638944526
15.308243808865912,0.21498876278976875,-0.06135017738888549,9.493754032203668
15.322112409047845,0.3056086182698749,-0.05432667268676959,9.530244520946686
15.328192748279632,0.4080675743012653,-0.05427518459686892,9.515783683965156
15.341705283808466,0.5908513439328862,-0.059464091332856385,9.51688337248945
15.347820130941184,0.7093590534168203,-0.05837237931378849,9.513015411175534
15.361284822087194,0.8735518606210327,-0.05185160316749183,9.526457451510055
15.367369562534499,0.9781383664772647,-0.05328490454040882,9.508289662915578
15.380945296535291,1.0139632088297688,-0.04690754631564652,9.527427296936745
15.386927979865082,1.0741059830016353,-0.043687532747743535,9.517452984537814
15.40093993036345,1.1230077874270321,-0.04738569624454156,9.552994508450102
15.407709554129157,1.182156924406664,-0.03753491664730514,9.5269749619354
15.421090767648128,1.2403411347657753,-0.05548655332829872,9.533042985779717
15.427184025506454,1.2807303731660697,-0.049538529175901944,9.504429017675433
15.440719668125066,1.3269370641271372,-0.048872602694821514,9.5306457322258
15.446805417582997,1.4392274281896598,-0.048175506641577805,9.525278820498366
15.460339270564365,1.322688727280552,-0.051853563467808186,9.509804232015
15.466421594127539,0.9722829692819431,-0.059030766305093775,9.505528435203008
15.480623890279901,0.8172331341129803,-0.04858917543122245,9.532838001630271
15.48806152602191,0.7482830142520394,-0.06315400839926041,9.526878013507536
15.50275496374317,0.7433735227032205,-0.057697230256081686,9.51361469536671
15.508555447831046,0.749874396463845,-0.037858703387214296,9.500219258331338
15.522306824380085,0.5849732250350154,-0.0664014706953058,9.502886898170711
15.528101687616685,0.46745548574755597,-0.05045777649706436,9.543800600923781
15.541957196872943,0.3277027942186304,-0.08053783554342855,9.531338799079082
15.547648075664691,0.2759940765180785,-0.06018403961625128,9.531304357538781
15.562172817399384,0.13541637556913746,-0.04867013274106295,9.523469264017535
15.568331918987575,0.04427566709422342,-0.05445013615764285,9.544446287441186
15.582648381212753,-0.14435441261446733,-0.06981206257664228,9.519112568486777
15.58906987085573,-0.3258787999061025,-0.08885646587508486,9.540217238233016
15.60276112525903,-0.38318302719102465,-0.058205911309448216,9.508283992837303
15.609507640443809,-0.4495077188971628,-0.06939382168957202,9.526913415437726
15.623774546734733,-0.5757032843118355,-0.07116395367197048,9.515089403489796
15.630347008389945,-0.6487033472262235,-0.06194226788080758,9.545014296999165
15.644779001409894,-0.798692435190536,-0.05097601640576762,9.531680068490882
15.650837388448787,-0.9317950028654044,-0.09213060622832905,9.521960094349726
15.664518320321372,-0.9353427216415073,-0.06525373537589794,9.532081222035998
15.670438790385015,-1.087268163004295,-0.07843822176819146,9.523766475544782
15.68416243552271,-1.0280862994612,-0.07926533116251913,9.555089302175734
15.690846764834133,-0.7003202909083445,-0.04662334426821543,9.546286826655688
15.704794751114774,-0.4450416045220503,-0.06061244600471638,9.54232334038129
15.710591604602874,-0.4687841551052276,-0.05475588834570674,9.526974169241146
15.724476334609406,-0.5262957222374443,-0.05600952669288671,9.534972635259091
15.730196224968577,-0.5798446198680919,-0.0592790084706555,9.519853355004427
15.744046081124695,-0.527006261277404,-0.05324166968393299,9.548493373195807
15.749769907086987,-0.4048101519567534,-0.0575000826089345,9.547528635957125
15.763690681595437,-0.3284512506108991,-0.07997255333374274,9.50767733656291
15.769381986698098,-0.2257668229278989,-0.055294026542447625,9.545578127028415
15.783335233213679,-0.15498920688996456,-0.06086801558201143,9.526072474127703
15.788988439909732,-0.06368837880844976,-0.05753057525661455,9.536390775337924
15.80291143301312,0.11164267212304832,-0.058233102022567686,9.53115009749813
15.808552503947716,0.25826778358898356,-0.0517199207986202,9.517334651127056
15.822554285250598,0.32648713551842956,-0.04611939984471604,9.531421623511216
15.828167734729066,0.41163164790438833,-0.06445858801195849,9.533986495772654
15.842195054494585,0.5879230400661586,-0.0506534985092979,9.531887764043775
15.847785199472648,0.692329462542915,-0.05507363755514865,9.47800372266821
15.86180871627854,0.8920979581580651,-0.05054421588923971,9.54806711635567
15.867327053822725,0.9869961274226654,-0.045527596606368695,9.504856327696013
15.881424019192211,1.0250132299711983,-0.04972460704365786,9.552678326351662
15.886945573228354,1.1142322335226034,-0.046379360252782664,9.514331218759
15.901063508463656,1.144669926287001,-0.0495715138874864,9.536091510750795
15.906564837488801,1.1770819521091207,-0.04509434125409391,9.526024133866887
15.920683599842361,1.2124248945911258,-0.05408958381111483,9.525548923718654
15.926106246010939,1.3088068917555582,-0.03481610495549066,9.522508019223684
15.940292538101088,1.36000527005774,-0.037107045549207594,9.514880289801033
15.945724510924592,1.3993598847056972,-0.05293157054777933,9.521966591361345
15.959932784581461,1.2997460927930797,-0.0370511030639894,9.530115859670628
15.965338734849771,0.9675101868752611,-0.04128399927883011,9.517671491734074
15.979577004707252,0.8058252932010191,-0.0529972747594292,9.523265305681072
15.984876771944661,0.7616445160475245,-0.04116617244124675,9.531193995336992
15.999150977739083,0.7335302572474126,-0.05146469819579479,9.52282649422359
16.004509916892122,0.7065289420369366,-0.043521796023248724,9.510941642261468
16.018796704798458,0.6305010584887334,-0.06445066914269751,9.516548172220682
16.02412140263768,0.5524046501104534,-0.048643579993066406,9.538463136325797
16.038442727100605,0.3769847968160046,-0.06511870961648422,9.525341668677726
16.0436979619365,0.2941586027720354,-0.05880696783450849,9.539543120006599
16.058014411971538,0.16771718313077835,-0.05768657152909854,9.50458478669464
16.063294495569192,0.04867133436665385,-0.07042079731690284,9.519607608679461
16.07765258081086,-0.035268855664649754,-0.0418688848927437,9.516067404181
16.082969153129348,-0.2215500053612917,-0.08323606203105764,9.535673197271345
16.09831623028746,-0.37781653179414415,-0.08196412692957761,9.534248063969395
16.10336972190635,-0.4293811704773925,-0.0582561413996274,9.529422466990866
16.11845513876534,-0.5215591062810284,-0.06422320469510655,9.530179636681677
16.125121855723137,-0.6223846347818607,-0.05670857469785175,9.523988052041416
16.139388046775213,-0.7163903530236584,-0.07345905846679256,9.538981676113517
16.144714639711275,-0.8918367380304787,-0.06548317213877042,9.534039295147817
16.15910775002567,-0.8864165291640064,-0.08491087473931204,9.530588992691674
16.164344711395486,-0.9605527182016855,-0.07098811616315161,9.522647553109877
16.178749464352254,-1.1106270996409604,-0.07368715156239732,9.539355014408523
16.184785985860607,-0.8782862363994092,-0.08357041288639327,9.510715680828728
16.199423908107043,-0.5895978481888591,-0.06058466220155599,9.541672697903431
16.20446845424268,-0.481218766825667,-0.06287356412862367,9.498728238567624
16.21894577021423,-0.41818936678639873,-0.05871622895779621,9.542270563779093
16.22403297987301,-0.5209471619381754,-0.055066777731067086,9.518217149319556
16.238644314441096,-0.6335505985804111,-0.09040984924594644,9.521595607476518
16.24367256335212,-0.560299216882759,-0.06127308736313893,9.539098709466924
16.25828799577279,-0.43192506013147974,-0.056985160210942104,9.518188058539426
16.263240712626764,-0.30132751189881946,-0.07259540729681249,9.527849636683435
16.277770692318054,-0.20119562022598564,-0.06731564762556948,9.52230955103647
16.28289638089015,-0.09441704040153276,-0.05942843630853619,9.512986553581854
16.297441182995136,0.0065541837313733975,-0.050022100364132856,9.538028864662223
16.30259170073221,0.17863565100629736,-0.058685453423091005,9.501032155981177
16.318123742051938,0.3238956944811503,-0.05414856182138245,9.510016931194352
16.323049277539464,0.3748445023721767,-0.05242907169469441,9.521378811829377
16.33776094120842,0.5034862207359747,-0.05340703131515551,9.518216887315784
16.34264659379409,0.6646506258895558,-0.05416642857359176,9.508255196015634
16.35735710535241,0.8121712775316344,-0.04918194453148666,9.527701364018496
16.362223237506203,0.9517767627345433,-0.049453987403753355,9.52412090845633
16.376975090809765,1.0047393280854449,-0.050313516932102446,9.53204500731793
16.38187121087674,1.0640868683904696,-0.04934568390646874,9.527346016573237
16.397533782919645,1.148660359045798,-0.04904803533083826,9.528625455163269
16.402441623378298,1.1777435880489862,-0.05258920051380466,9.542655498911488
16.41724332700213,1.2196569041385121,-0.04375386353289393,9.514265079523257
16.422011282235275,1.2925465323775311,-0.05184588175162955,9.5109474278868
16.437160686797267,1.3236531143268053,-0.04955675538667706,9.526916241032842
16.443084200312246,1.453161281397693,-0.04742144130403999,9.535489781382777
16.45852102241255,1.3648658118887238,-0.04543508822064603,9.509907961621469
16.463192616709282,0.9699417100535597,-0.053028921795067845,9.529136376874126
16.47888279230113,0.7663882254190989,-0.05082706911732821,9.531021414440211
16.483909464640377,0.7671927620127165,-0.05137057970070653,9.539936170419717
16.498638199434698,0.7655939513599922,-0.06159698696141057,9.51204315144784
16.50369538682441,0.7328132360394194,-0.045084364435595804,9.506040913722105
16.519402155192534,0.6421576405141695,-0.048604865406841044,9.517563388557903
16.524004187053155,0.5115970771249343,-0.06030950554237721,9.52245717997214
16.53899230009918,0.38026598832577757,-0.04801407693256373,9.526369077027795
16.543523935205172,0.2880293513238941,-0.07703407089477879,9.514254413541812
16.558626953024778,0.15454110485434894,-0.07006950026328497,9.503666684817611
16.563104608387256,0.05516820619116493,-0.057217151071401205,9.538486294369765
16.57881511569692,-0.06123119044772863,-0.05317721240019737,9.5224738423448
16.583883410316663,-0.290727352414765,-0.09309269533083148,9.514543810823183
16.598776796122554,-0.37264087296262416,-0.054774094360756344,9.521310139580663
16.603443656091276,-0.432743293678266,-0.07492940599053101,9.51640702095124
16.618440718429245,-0.5335500175868912,-0.06959347641069659,9.523551095773241
16.623045559669528,-0.6102659295518195,-0.062028844503064326,9.530904708890965
16.638025990677548,-0.6957241795300521,-0.08241325332273104,9.523944039936815
16.642629536174926,-0.8522666042806889,-0.054324040275005474,9.534896609058434
16.65860860408537,-0.9037253406888801,-0.08235193200930403,9.538339702763057
16.66321199667814,-1.015614088338345,-0.07648001214117285,9.510109342811743
16.679191170152706,-1.073137774658117,-0.07115606642621247,9.54278990382649
16.683805165186207,-0.8673840952180734,-0.06772023010982127,9.535266481339468
16.698893455586752,-0.5725059230262378,-0.06380720962755451,9.522208916318775
16.70340360845071,-0.45239951437589854,-0.05910821854433271,9.516320470310506
16.718506184664243,-0.48836316788761064,-0.05963061473489262,9.51209484053603
16.723029007875397,-0.5320193916709626,-0.06117027360119336,9.53213378521241
16.73815340092195,-0.5430636368039038,-0.07352824958613775,9.531824654782977
16.743362227569513,-0.5372891311824597,-0.0717261664225226,9.519467166439611
16.758877941547425,-0.4397335342697948,-0.06579567181415862,9.535868389653638
16.763101836017654,-0.27754628771941675,-0.06295226475113833,9.539862991524357
16.778641080153776,-0.16212336376108397,-0.059235546132674025,9.516360136870844
16.783760404532032,-0.0638015652887215,-0.0584427169612002,9.523832199106803
16.798977352771637,0.04506577622917161,-0.0503284888889481,9.540642096666733
16.80335813759202,0.2047490935685092,-0.060045211694760625,9.50275468134795
16.818655986428,0.2921919802239498,-0.05583913610816265,9.541501945355497
16.822963231881857,0.3920771239505056,-0.06469689005080756,9.521000795610696
16.83831063915867,0.5207657596007486,-0.05882412408735546,9.549269462043178
16.842560423004787,0.6703990320949204,-0.05818466722896268,9.521040823349928
16.857977714784774,0.7968964985953799,-0.05536672914198033,9.506070845317272
16.86204389538138,0.9852910462940583,-0.0515887839455854,9.534451080045187
16.878061984662242,1.0055890729746892,-0.04872556571360615,9.504903662011104
16.88278697430009,1.0525420432248913,-0.04839555956530257,9.512697356865589
16.89801740137498,1.1371532507736655,-0.046307040903071764,9.518435062070274
16.9024123823526,1.1540177126926552,-0.05138818400791705,9.528034232035653
16.917725063723196,1.2153739620611257,-0.047248691642324425,9.530675667362352
16.92200477922357,1.3112608398992187,-0.04530860710765278,9.528210239463046
16.937382009580624,1.278688090651939,-0.04724624381232477,9.51763196160536
16.941591676511614,1.4088528046263424,-0.03337494289071966,9.533991722232885
16.956954973849623,1.412223275298187,-0.052178195774011886,9.51754690247546
16.96117112465856,1.1462949827093574,-0.04305252920027979,9.516061834872442
16.976599323793213,0.8202181214237246,-0.06442606597080666,9.515520544320388
16.9807873651987,0.7711243374510756,-0.05743179956200109,9.547728868698254
16.996233982379213,0.7004050301682754,-0.05634638468214581,9.535387314620587
17.0004205174009,0.723406452192827,-0.049947721754028264,9.499304992802157
17.015789415383168,0.6889501298617519,-0.05647804475312489,9.53153303289217
17.020686638618542,0.5495912108877664,-0.042312951826080025,9.542917999587972
17.036577300152118,0.3691243940448381,-0.0686470769250688,9.519407898862015
17.040431589305403,0.3212805728198882,-0.06685189687806979,9.546664782252291
17.056303526047504,0.20865250860260995,-0.05831233543838389,9.516558244868868
17.061134772199043,0.07341541306577468,-0.07721386382441567,9.519311637237118
17.07671168926574,-0.04141603952072355,-0.060975256937525917,9.51817889788414
17.08071340773466,-0.2128720952778667,-0.05970312088485582,9.546494029838714
17.0963355194878,-0.34764757257354745,-0.07817627525863115,9.515570079314235
17.10043608118744,-0.37586518145515885,-0.058033955210287556,9.52507170243176
17.11698194852435,-0.5215542841314962,-0.05894978672478095,9.537232186170929
17.12090951829474,-0.6196499317165807,-0.08706029003557843,9.525104193526888
17.136652609986637,-0.7148714330595314,-0.07096876661259721,9.544048214573582
17.14149113843791,-0.8815317986178726,-0.052986418763062544,9.543644918588592
17.157222816931068,-0.8978693939432385,-0.08193691114202033,9.532123986922434
17.161126251195732,-0.9350721736140816,-0.058440094860446774,9.52468939255263
17.176847969246108,-1.1162649206625705,-0.07037096520929895,9.531181780135306
17.18161961144198,-0.9303270268753249,-0.07891165847126355,9.501766235701286
17.197523591288128,-0.6109646382871922,-0.07006957753868068,9.537052455947475
17.201232376964708,-0.46427511949612665,-0.05356646848392377,9.511876565329393
17.217091935005133,-0.4912764476460304,-0.06087693492006581,9.492327761840029
17.221662062422002,-0.5284447513895104,-0.07291307007688089,9.545831476107171
17.23862144454695,-0.4811194771159357,-0.06075790646029085,9.556973268772952
17.24249305052581,-0.5896216997094145,-0.07155526863051435,9.517934304175276
17.25832603265693,-0.4987375215872199,-0.06076513032560047,9.536005279912994
17.262074662664542,-0.3055083488575073,-0.08003722068962094,9.528030004587553
17.277970276574674,-0.16018794696245836,-0.07376110355960794,9.523321317865152
17.28164363539573,-0.06966396309909534,-0.04829318396285971,9.507794662656663
17.29766844504003,0.02703451101082918,-0.05328337353607246,9.535364786182683
17.301202172118604,0.1758548465775544,-0.0598069605243691,9.50973354628974
17.317898473019696,0.2860409496444517,-0.05076719381388144,9.536798986120296
17.321908283495944,0.4098205567101057,-0.052736473455575576,9.531837964189256
17.3377231931305,0.503113645721982,-0.05862665039827031,9.515982180163295
17.341504723915516,0.6429667069054869,-0.062485855395408164,9.535112294518004
17.357414406527038,0.7763145774507328,-0.04934348385763684,9.518054663570704
17.361100812035108,0.9640046149243874,-0.05244591555166816,9.522965466861356
17.377065526438717,0.996228860130352,-0.04589083821365445,9.509986588509168
17.380711478134767,1.0609364955370293,-0.050022056969888117,9.53553967954461
17.396686042364635,1.0909924035564251,-0.03968124279948339,9.513231980551126
17.40024743878723,1.1569273305772765,-0.053516066408486995,9.517306688069468
17.416305195121826,1.1951419993006684,-0.036855570798861086,9.522223026114567
17.419862396739056,1.2906853295934444,-0.04945890576805584,9.530042116270325
17.435949916113202,1.323767329770988,-0.039471724361989674,9.51742621468997
17.43947319450762,1.3682211834918945,-0.044412492246627536,9.516554522433038
17.45559547657236,1.4157813892120268,-0.050303432903566106,9.506983051908842
17.459031448402087,1.1736409319471104,-0.03720697135064312,9.521714567634234
17.4751801131893,0.845586880520676,-0.05468249109369876,9.505872656019326
17.47862763440248,0.7433259739928576,-0.045964917526125276,9.53624211679073
17.49484240733465,0.7118346174760004,-0.057052768671629304,9.532708090197307
17.49819793252418,0.7524760294039562,-0.050769010318315946,9.52522937279665
17.514709224223562,0.7092675384021541,-0.04818960923387516,9.505876228909846
17.518932881317408,0.566385617790317,-0.06375471901874441,9.526839668904017
17.535025411505128,0.42672062779449504,-0.050286499398104936,9.5199510683522
17.538491239006035,0.344934771193257,-0.06298325290602129,9.527348017006744
17.554616255185284,0.2806091604173227,-0.053880877220705455,9.517676441159972
17.55805254077113,0.11649553215899444,-0.04799921010306812,9.515244926136104
17.574263491255525,0.009164031373067327,-0.06140717611057065,9.541189422975236
17.577666432885106,-0.15116622648528477,-0.06501232341355084,9.534340147658003
17.59390101715221,-0.3319504301043132,-0.0624707075315192,9.539146595352765
17.597288160812965,-0.39835275645688095,-0.06775390285311157,9.497113634208054
17.61345082007447,-0.4598258511517082,-0.05137152677956622,9.528133811869644
17.61695344896051,-0.5762141083191382,-0.07284685945977143,9.503448034236154
17.634042268946832,-0.6245237855473825,-0.07401783357573237,9.5214042754338
17.637925774501383,-0.7650569648313515,-0.06422427083112837,9.508085421725276
17.654858627047158,-0.8879510867641079,-0.05204848545770439,9.546123246143841
17.657854866262614,-0.9129811384761903,-0.08899209599468942,9.508878874816919
17.674462917569286,-1.0805448237080044,-0.06809348121968843,9.52096808722048
17.67754235380297,-1.0121327696534703,-0.07210169649595395,9.530484757055001
17.69395311182954,-0.7227949949906929,-0.05936500546039432,9.539707741528405
17.697408366909176,-0.49492949001547004,-0.04480009282036741,9.53781638757279
17.715194295969898,-0.44663914288582074,-0.05603753318131962,9.525336814605657
17.718721050133,-0.5353733246791531,-0.06019146765397121,9.516368420519694
17.735599827596058,-0.5731813737681274,-0.0637720162648774,9.502288997057358
17.740265580452533,-0.5056686884045769,-0.06573328132619474,9.548061238287618
17.756996717337074,-0.4297175960094155,-0.05511037808428348,9.522204369008598
17.759826261841578,-0.3495714773663683,-0.07101495785681929,9.517951122299548
17.77755335844008,-0.21927861878668461,-0.0720799081980122,9.529466250035279
17.78188543588222,-0.09250211015569744,-0.046978796545986225,9.507526335719062
17.79938375418224,0.03982233695279249,-0.06537835838148806,9.520929496582703
17.803180960870773,0.1965761082569269,-0.053920822914602415,9.49349649917521
17.819902035052014,0.28557816618944676,-0.0577990416570347,9.547529499290318
17.823801695931916,0.37995656477066425,-0.06655383215430784,9.53077557048993
17.840321711896404,0.5463018709903439,-0.050762819155845594,9.517906058264957
17.843411158594225,0.704677110339744,-0.058475487513615004,9.518311308533667
17.859987525068448,0.8622692254728261,-0.04659905355144283,9.506453025507906
17.863004594498236,0.9385561906466441,-0.05010399903568818,9.528105492771136
17.879680007480765,0.9686972761419601,-0.04590819623198375,9.51149333122636
17.883590177401462,1.0674637657041006,-0.046768478813674276,9.527422198793683
17.900167476217845,1.1097995405316994,-0.05374117389825349,9.533742131636497
17.90370045927358,1.1676548430935483,-0.05239541390004197,9.526113973026725
17.920991358406205,1.2562100605154871,-0.03590383242843736,9.518804213684515
17.923727941392208,1.29741814159108,-0.046782430621841106,9.524769422083084
17.940520943946286,1.2769798751854846,-0.04634908854237558,9.512081115299438
17.94330229922417,1.372230751770183,-0.04818035914252586,9.514897160382658
17.96014877315617,1.341499243232733,-0.05107998216186046,9.519129911819663
17.962923033952876,1.0428050961194568,-0.04440319338540204,9.508110496623141
17.979787900464192,0.8126370385069597,-0.054146348889534415,9.53988131349883
17.982540820002214,0.7701459604611377,-0.03769073205653383,9.527273646485101
17.999412154194534,0.7357245802296064,-0.05909082334572793,9.516761818174858
18.002084096636505,0.7301945575504927,-0.04430616431050472,9.513091231355833
18.01890654518906,0.616655506151755,-0.044934202481970324,9.529636745172075
18.022400931145196,0.49993579758786055,-0.06368268065716594,9.519512063294163
18.040476245345097,0.3941890395207431,-0.059648844874884546,9.53155014480342
18.043467791988963,0.3128493383385743,-0.05436025820759119,9.518201508176405
18.062086262622543,0.12233717552699666,-0.06848583222537709,9.512288201366461
18.064784914388323,0.07681958769742872,-0.05962016930467443,9.551713529188495
18.082090471995947,-0.06779168099831984,-0.04776879437472039,9.52794647866614
18.085474633765994,-0.32078299947277117,-0.0902267463392296,9.53045123508132
18.10310665775658,-0.40480211813726963,-0.07171074554087038,9.521876533196826
18.106209460962425,-0.44590794928029065,-0.049797561221995135,9.543475059609742
18.12306006078504,-0.5303316179569759,-0.08434858688575515,9.521727928261784
18.12576168623901,-0.6109222783561573,-0.06920215863839556,9.523959258747828
18.142726259255088,-0.7424015125821366,-0.05697373502646438,9.52613500235837
18.145299733398982,-0.8403391664799289,-0.07221647611597763,9.516365091341477
18.162319778396963,-0.8717844882742739,-0.058061371388473275,9.536292660219198
18.16491459978493,-1.0108083137108674,-0.08057594556428056,9.501755415330337
18.181895977058943,-1.0565061352494949,-0.0739919496620149,9.545264625175681
18.184476967067514,-0.8648346615028233,-0.09619454812723731,9.510523000247009
18.20163510722112,-0.5801426643044826,-0.05694791859298082,9.54563429344304
18.204060007520376,-0.4810438261693272,-0.07175151239911334,9.492977254684755
18.22120626697496,-0.49912990739472124,-0.06125017161711659,9.523993233170286
18.223606734838835,-0.562878951682255,-0.06251315854189664,9.503233810454654
18.24086483447478,-0.5033832664010999,-0.06637284784893821,9.538171259142691
18.243280605521345,-0.4173209192575527,-0.062191435544745585,9.531348155607493
18.2604961292324,-0.4074438258710676,-0.060140650977659145,9.498568229155149
18.262898294762312,-0.37364111800840394,-0.08200726342298402,9.53268194201603
18.280022579427257,-0.24165011494425434,-0.06445157968129374,9.51878989543586
18.28270714038914,-0.10420202687963692,-0.05513451319856078,9.519784507150263
18.300815234503347,0.04254799174472996,-0.04916746121607116,9.533600635066938
18.302968496631255,0.19953787848679436,-0.060394806586668945,9.50109250591721
18.32040031173409,0.3045986076378896,-0.05641407463692941,9.527816507448094
18.322601137453216,0.3836121480766424,-0.06560169572992347,9.530886330150079
18.340035886292554,0.5045197111496599,-0.06001253688146715,9.527742861184022
18.34221177879424,0.6287811065925739,-0.044181560651123844,9.520516389725856
18.359611099139716,0.760173708501363,-0.04989027028037516,9.493054581542546
18.361749724717136,0.9605726666080135,-0.04757599172415069,9.521017662766347
18.37924398010541,1.0092069671256299,-0.05227832909657664,9.521982037961811
18.3813995303311,1.072152260030662,-0.04612611069315653,9.525586014200996
18.398881509066776,1.108634544997181,-0.04839790870317588,9.526227369191119
18.401031497561092,1.1444210023968466,-0.04307500716462999,9.51521997037028
18.418448218966365,1.1703323547941904,-0.050729162086872476,9.526423616241942
18.42101687497559,1.260720474587213,-0.040868112729109965,9.526865991993537
18.44061658091736,1.287195689762024,-0.036480234372036686,9.53039498477894
18.443572317083323,1.412473138499326,-0.04628254718107768,9.525602466170119
18.462338686813233,1.330546531453776,-0.04303330580369067,9.505537637252832
18.46568162357519,0.9624740676715211,-0.05042213732097943,9.512916905614194
18.48343895842079,0.7631432942216099,-0.04681364373762791,9.527241188791745
18.48528214128056,0.7417508955308836,-0.0505627294565129,9.524481337226213
18.503122319019564,0.7406942345574228,-0.04572540501798352,9.505576199419718
18.504804108347763,0.7377654968336274,-0.05604162958816349,9.483334131652697
18.523008164375977,0.6636378002492942,-0.054535878931916505,9.53450368751595
18.52554773668676,0.49384692543239694,-0.05320654507955886,9.536368323883249
18.54350490005785,0.34112957068419997,-0.06323085415567054,9.523206006769678
18.546214830493877,0.25493735063753203,-0.06377801957381446,9.529516241436877
18.563809806616675,0.1309489486619496,-0.06798938884099022,9.491188068782403
18.565694676376566,0.057938291878449795,-0.05043052893826825,9.5170943434991
18.5841859248523,-0.10477281341180479,-0.061509621112241994,9.5251592219508
18.5864152300129,-0.286274628381788,-0.07626134616860257,9.54701079188984
18.60405462020817,-0.3769123820150434,-0.05603411092810513,9.513540076106654
18.605968318076147,-0.45289337989283746,-0.0734335917852658,9.518964183316188
18.62372891635616,-0.5262810910219825,-0.04688642720975029,9.516985719832117
18.625562135979283,-0.6450990133412231,-0.08895994469902185,9.54445948548659
18.643381526570664,-0.7126837482160598,-0.060133415872913154,9.523204301503382
18.64510009814498,-0.8518293954058724,-0.08287091313534392,9.497094335136985
18.662982381017677,-0.8339902402697364,-0.049256725118767615,9.523187139009893
18.66470176527596,-0.9810791751723398,-0.0719492124471467,9.5074470160044
18.68263537944363,-1.0848109472191036,-0.07584685615974464,9.541355201272173
18.684304723440565,-0.9282670732799189,-0.07934341823453762,9.537739126413566
18.702292246841292,-0.6198471744340395,-0.07704812191653325,9.524092898369734
18.70388349645548,-0.4594573081557943,-0.05278153476845526,9.530857099304837
18.721872974390607,-0.4950480413724707,-0.08034166324715201,9.513561120873465
18.723453688186932,-0.5500385769960673,-0.07155740860485299,9.510301020753056
18.741536978340264,-0.5264054582466448,-0.052041089300775965,9.540900234867118
18.74304073024265,-0.46665465135679646,-0.08349641176854267,9.53151547663673
18.761222850868727,-0.40156797705072356,-0.05352659740903865,9.533729137709724
18.762524610978467,-0.30007158047502286,-0.08438596238910541,9.510587568028075
18.78100129832082,-0.1772639093062176,-0.06912015591106781,9.530885381451638
18.78339025470775,-0.07828333232377639,-0.04371957210729698,9.529162017914826
18.801319462691943,0.00416195394113015,-0.06582156663116083,9.514657369246727
18.802861949602125,0.1814129344939229,-0.06204301076805839,9.527964427282113
18.82098539905269,0.3001168414831631,-0.048745735844010145,9.525112277081682
18.82245583858615,0.3676325218618402,-0.058580731802344854,9.531186247963394
18.84064579940832,0.4899908058149683,-0.04920828050601198,9.522594543175899
18.84204627709075,0.6411169910783506,-0.0554177842026566,9.505716626331287
18.860260260444786,0.7689330559795323,-0.050853217554250346,9.521307458607309
18.861612353490973,0.9407927703619118,-0.049848098391315813,9.518047927934605
18.879859566531163,0.9620505625714327,-0.049528061930791484,9.517631764496087
18.881036522108115,1.0478744199232664,-0.047621632862549994,9.52096553071064
18.899548356928154,1.096365197873558,-0.0496117325556489,9.517816011946184
18.900798159529074,1.1319405988440543,-0.0426460751280662,9.51608842087794
18.9192039642523,1.172314434938148,-0.04709683773356076,9.518193321057241
18.9203304147483,1.2772466359802341,-0.04580913960743743,9.531155227016239
18.93882217345431,1.2910954882186632,-0.047932217157056214,9.50048352003805
18.939874637771688,1.3361202526182172,-0.05100852374448354,9.547347222531359
18.958868808783684,1.3811191074867464,-0.045746080259208885,9.520652918839541
18.9606518435943,1.1566934458865685,-0.054576253097286045,9.507396592351638
18.978994922252003,0.8693380328376612,-0.05570244664665869,9.502452530320298
18.980192947484475,0.7667670684259139,-0.05514581165849886,9.549228163692325
18.99867488904007,0.7511785059673274,-0.052990468960191606,9.529658518077742
18.99977953317118,0.7402117203756783,-0.05041478339429542,9.506500147684942
19.018296785344884,0.7241153333077882,-0.051497323553363915,9.503146112362751
19.019285321938856,0.6003465676736344,-0.06232605747597654,9.542403301763441
19.038703531267807,0.44479380214682446,-0.049646840949030394,9.518196916221893
19.039964089885064,0.31175230973470924,-0.057930385004474026,9.520147818883054
19.058523557422372,0.1819198925753916,-0.059590440323692796,9.515546711864946
19.059510931776433,0.08797909373076465,-0.0643786484115449,9.540851607642681
19.078816971545418,0.04956967958763248,-0.05523576607193923,9.533219019041805
19.08088429922158,-0.13650894270804798,-0.06789564468691252,9.520076345070493
19.09981179980333,-0.3066132644592635,-0.07704718387731548,9.527133736637731
19.100648949665416,-0.3918764904440699,-0.05675436772996766,9.523154796481105
19.119465819998435,-0.4617996297448802,-0.06021585963818448,9.515514069336225
19.12027336111021,-0.590932437850171,-0.07716578507901828,9.534722554659128
19.139120796566235,-0.6740421494742704,-0.057151611278009454,9.523663428047723
19.139839481782413,-0.7814586745566942,-0.07503668942509563,9.512203179814943
19.158711699973434,-0.8437811785080158,-0.06177274755344267,9.536903339086022
19.159423403935957,-0.9575715850097817,-0.06575221115456807,9.511859346920948
19.179836930299956,-1.1086983494623661,-0.09174659549030532,9.513486532172301
19.181176413441136,-1.0117908988735498,-0.06749514368765992,9.534905904770978
19.19991451916872,-0.7343584910882959,-0.07129631455741471,9.526320721366467
19.2006467061643,-0.4747773330889945,-0.05958385417130549,9.521558095473557
19.22049318048479,-0.45769587396045697,-0.06149230813340969,9.519064367667362
19.221225983734524,-0.5616524840099205,-0.061958634746143805,9.517793054316064
19.240205467706787,-0.5689056066561559,-0.07306422699434525,9.542241507590305
19.240805474969832,-0.4712773240644585,-0.05407323032468265,9.547759681972328
19.260699480322856,-0.40560153393464804,-0.05682125533682895,9.517623307357983
19.261429419441352,-0.3049819150307114,-0.07502482065569949,9.524738617817196
19.280439465063804,-0.05822518382463347,-0.05182060167837448,9.54684312889319
19.28100331033342,-0.08286463369519348,-0.054048142515643036,9.490575746100653
19.30015272832966,-0.18596754117884964,-0.07572829648705935,9.509513452345171
19.300545539985485,-0.010740893586774724,-0.051850818409368116,9.558218660904537
19.320488931407002,0.2067116614286523,-0.055496172274157596,9.524031599398464
19.321288474788023,0.3807982938162564,-0.0684191853690346,9.52527057514649
19.340285603331655,0.5344653357558673,-0.051703280787981545,9.524002507162837
19.34139772395952,0.7144597441139716,-0.0438898344654045,9.507937643340698
19.36174455406055,0.7927889448669266,-0.0702970825617287,9.49077123744469
19.362416702675475,0.9204187078575625,-0.04151939609286869,9.535513486833088
19.381627522543937,0.9491907918584288,-0.0578606650343189,9.53472723141985
19.381916031371983,1.0258155754217808,-0.051018403185914746,9.524743195985623
19.40124758999636,1.1016032649417435,-0.049385328998324464,9.508947899512053
19.401508377007797,1.1807435529493617,-0.04609377833677592,9.515396676115344
19.420909795845127,1.1930114050400735,-0.04883367837978766,9.501044534196511
19.42110120770495,1.219260969790986,-0.04762001788007914,9.530651117469004
19.44057582338364,1.2537351493493765,-0.050365804370108756,9.525386420586361
19.440603244974213,1.3491533433255185,-0.04643934189299925,9.54099101887732
19.460184268966085,1.3862815263742567,-0.05042756731240277,9.513318042137008
19.460171149734524,1.1906262314409999,-0.04621862486919107,9.503907404750672
19.480234379252472,0.8628533288445198,-0.055540314428075686,9.532962533902927
19.48089595992514,0.729243020184192,-0.04754092331252482,9.526295301992029
19.500344449008516,0.7308216857327994,-0.05275449232321664,9.511996450452006
19.500496391427927,0.7589449861408425,-0.04545680634346864,9.50600331702068
19.520044267288167,0.7256429515574851,-0.05924080415983129,9.511341923908308
19.52007748670946,0.6128129894618323,-0.05184766244467789,9.530354403498452
19.539665420344857,0.44702320168764426,-0.05223337936079026,9.509353005999465
19.539600279101492,0.3182414689822083,-0.060322360219616844,9.539120084406491
19.55932294691394,0.2461140852163283,-0.05244879070084776,9.519600943324564
19.559189011773714,0.10394092517060027,-0.06399124351588474,9.518785659145939
19.57900108610241,0.03288025020836037,-0.053976870258986474,9.524608468005699
19.5787392853698,-0.11288182899578963,-0.05470216676227691,9.515490366652784
19.599318862802274,-0.3183157213610149,-0.08957316886786311,9.539075187318511
19.599455113260852,-0.4159111492461107,-0.06729824061776978,9.519907512384005
19.619172061648467,-0.44939374983056285,-0.06235327023064422,9.50655756253459
19.61896728048765,-0.5356497763484831,-0.06190211853194167,9.544384635716721
19.63881788428432,-0.6338002380916111,-0.07206093794132669,9.516848627167471
19.638554050915484,-0.7455403279248726,-0.05259642373308363,9.51187572291848
19.658481534174346,-0.8895852945590841,-0.06402384182960469,9.512135427518121
19.658148456764355,-0.8737298537694874,-0.07783234929825415,9.52235690171916
19.678144511534224,-1.0341608293352609,-0.06881288296004394,9.513001506826178
19.677719122902555,-1.0933968903334503,-0.10275653363075807,9.548502620678263
19.697704381562396,-0.8050210247061894,-0.064758994086643,9.544430070027307
19.69727824018955,-0.5291590305041517,-0.05575869854719175,9.547449493448127
19.717399356724012,-0.48019518883965234,-0.0852741180483089,9.512418516693463
19.716880001033662,-0.538560365420916,-0.0505817547086363,9.53169706525231
19.737058829801075,-0.6108526637712177,-0.08730279681824253,9.54002176328101
19.736457926634337,-0.5573618175676098,-0.06901712609048939,9.533434652697169
19.756643371184573,-0.4725017399627054,-0.06066018453834842,9.515010540036668
19.756023829693206,-0.316388778257778,-0.06423712809573054,9.523807116460784
19.776304486188078,-0.22577249731630386,-0.056316656402016545,9.514350215589822
19.77562200235859,-0.14207311198328018,-0.08346848063280592,9.50735255153368
19.79596264478961,-0.05230587564363509,-0.04065569650882017,9.531275362666605
19.79522113324874,0.02690062552590034,-0.07894310288621924,9.537750971036088
19.81557555013227,0.21142377066743068,-0.060717170613003336,9.530455982831898
19.814750898961137,0.27853740852177605,-0.05434112708919634,9.502801312464067
19.835223606989956,0.38918474539293507,-0.05204368198276258,9.52223849918261
19.83434915240497,0.5328740633339655,-0.05025376828357311,9.529148813226996
19.854883326502907,0.6782612064290852,-0.04835842399810427,9.521980860911496
19.8539459253803,0.7899055086060018,-0.05334596649187691,9.517147056626605
19.874539337563842,0.9347889847576286,-0.051498179877402295,9.524334482552224
19.873466138849853,0.9746613485112667,-0.049865736037334026,9.527901970055593
19.894170479977607,1.0410695512753405,-0.05176046120742152,9.511342147070675
19.893008757531508,1.1082141407858614,-0.047157596782452474,9.497161416416501
19.91434688822946,1.145089559519832,-0.04926041943180939,9.51917800057329
19.913781284342978,1.176401013534203,-0.051414110867774636,9.519718544716861
19.93434130418768,1.2627414737765759,-0.05031995120919351,9.533018940625126
19.933344588761425,1.3118432830920708,-0.04922483457102558,9.523735187825375
19.953882016008187,1.398723711331058,-0.05255563864763395,9.526460032431944
19.95333655701098,1.3595810938555533,-0.05022057513266866,9.511453989145064
19.974812034225966,1.0422658673299425,-0.04508717876986032,9.519698248227655
19.973384293171307,0.7874981983413839,-0.05320507786477077,9.516839887175813
19.994353774699622,0.7561938137891351,-0.05120208516599828,9.555212977654017
19.992907636987564,0.7621474422865422,-0.050932186418584026,9.517108688727111
20.014009015607538,0.763212266365345,-0.04857028079471133,9.507070234858869
20.01253750859713,0.6910261836094641,-0.05191283491492089,9.524996902916818
20.03366452690875,0.5622358030212287,-0.05644729103841621,9.517494978902354
20.032133738745497,0.39643503211244197,-0.0490692926740721,9.524692179768772
20.05328204266092,0.26886002321902197,-0.057949886877290864,9.515309193038899
20.0516538688111,0.201167012782423,-0.05233523194367103,9.514067313527242
20.072951069596424,0.12114821659729985,-0.0567186215650815,9.518442865023545
20.07120670471772,0.021268273660874748,-0.04759179188904355,9.531421882708843
20.093295054025656,-0.21084117499295704,-0.0720858806082974,9.531895407080635
20.091917894906214,-0.35619074689147756,-0.08305570536839746,9.562022653635324
20.113173743572723,-0.42691018222588195,-0.06914136429360258,9.524005066376736
20.111468760651753,-0.4734592502467209,-0.05749602062259006,9.546658171427907
20.132857500557183,-0.5812569676673983,-0.07460378195275043,9.52492872802593
20.131016408571067,-0.6444467589639267,-0.06431896953007653,9.49562256973953
20.152453320705142,-0.7870443937916763,-0.07504288032347284,9.517560408119621
20.15059108725703,-0.8777248082624935,-0.09205925041776693,9.536703544782844
20.172104511192153,-0.9377598671567021,-0.0619608270035987,9.53287301102851
20.170008063681887,-1.1252813034626605,-0.09084879389642528,9.541441903903364
20.19176799547055,-0.9974693591167494,-0.06320732963219636,9.551943037997999
20.18972515588536,-0.7241651211842952,-0.08155438878178224,9.537582622635494
20.21137258965034,-0.4789795159806078,-0.05235233701446821,9.51584693576579
20.20928576145389,-0.4681202097778831,-0.06255478499308903,9.501995034704162
20.23105196839689,-0.5733629914386806,-0.059522077267748,9.526991598310074
20.228861717265058,-0.5847359928542482,-0.05687975922625558,9.545837641120155
20.250753308590905,-0.559703293648969,-0.08867302018815972,9.522725717841597
20.248438389791925,-0.46711163061076083,-0.07905167218165958,9.51683771902951
20.270345863019333,-0.3292150604872983,-0.05146128918956258,9.524722481436553
20.26799178086895,-0.19059793544061757,-0.08740427794833014,9.533925634450192
20.289986757057473,-0.057058738247825994,-0.05159756236403064,9.53821797524973
20.28758206759734,-0.04265244511595275,-0.07265193463043866,9.51935321447629
20.30969105302508,0.06025297886716705,-0.051246445733411534,9.548207501863684
20.307147574061013,0.17041571583741552,-0.06406585239235688,9.535985855001904
20.330035810640513,0.29147685225653697,-0.06110789273754173,9.523014124602756
20.328530476064653,0.4744366548998712,-0.06850674092798066,9.508235369594455
20.35100746003794,0.6799997226680393,-0.04953004381854877,9.53864235640543
20.348287082482667,0.7589474902603937,-0.06006816737403078,9.517855428380496
20.370557625453603,0.8740584544003953,-0.04383427539816818,9.529702529360089
20.36779747963825,0.9142541342580077,-0.05342097288663104,9.52682906979839
20.390279829529003,1.000550058689177,-0.04927755247742142,9.528494046260754
20.387377414550752,1.094769908205017,-0.03565611776771236,9.503493093850944
20.409972922140923,1.1603702885484697,-0.049700995393176184,9.524362774849648
20.406903168426215,1.2031704351260069,-0.04867668099281222,9.522029371661572
20.43015136316944,1.2127484328170237,-0.04571808428230338,9.506386604561685
20.427650473069715,1.2574112122402654,-0.04864108162496156,9.519628613420087
20.450154748579042,1.297357402147318,-0.04199286425850549,9.527003613878076
20.44719217228942,1.410735568791781,-0.04689794163711813,9.526177124200906
20.469813990744225,1.246648792261356,-0.04731200175762831,9.521640832761587
20.46670358079645,0.9283239224874592,-0.05334243499213078,9.51134716255273
20.48950474087687,0.7730546120276666,-0.062364367081209765,9.526522355316404
20.48717796461649,0.7587032348525451,-0.0500805650587722,9.559115591238834
20.510121018873846,0.7684742080951955,-0.048524089679403255,9.50712548451266
20.506802013597593,0.7342204029942272,-0.050067733366700964,9.497097638338053
20.529830651089576,0.5940851897011673,-0.057992191023195534,9.54484538620403
20.52719580825117,0.4655859736047199,-0.057973496227993006,9.542163258723138
20.550453542059987,0.34450889771827475,-0.0805362789401257,9.522779654121525
20.54721782414447,0.26530619079321266,-0.055647582937153925,9.51552274727778
20.571267527874205,0.13367205569977053,-0.05106101672233333,9.519735909720758
20.567428937160386,0.06400258745795222,-0.052431352053001846,9.532334333907599
20.590896905353645,-0.09621428081010316,-0.054327314113104305,9.512061441288933
20.587011557320135,-0.2855124464584437,-0.06858455336800326,9.54494410806648
20.61050340723733,-0.4246260663462676,-0.0973815926213872,9.537345079955802
20.606538208935234,-0.4718641104382223,-0.05937477973821412,9.547488168840076
20.630205382109242,-0.5745617345215134,-0.0858670694722395,9.538713796472
20.626055492979606,-0.6173459009103907,-0.06903480912653695,9.518764263374193
20.65047414642731,-0.7094435673165376,-0.058778697436489204,9.517249154516268
20.64676537331269,-0.8712052098962981,-0.06923704014894559,9.526723662907203
20.670548437198327,-0.9147888955528831,-0.09379209750578743,9.527363888795744
20.667299955541896,-1.0763345653573984,-0.0681667746201952,9.539923337921614
20.69110713779129,-1.0812959927697983,-0.07598130045470099,9.550866994345894
20.68686562276541,-0.8035461199460882,-0.08199471408956457,9.537483836351845
20.710800147600253,-0.5297009124754061,-0.049390427574779495,9.52227683355707
20.70636417543104,-0.43196376845701867,-0.09156127095404973,9.523539086777918
20.730400155370997,-0.49175746785553465,-0.052759200853722106,9.539762805719002
20.72594387141762,-0.6110709846350653,-0.07890150923611099,9.537171588300628
20.75011425645952,-0.598643928046036,-0.10136939030001704,9.552179146762443
20.74550749148573,-0.47214831418079894,-0.06093413345832045,9.530269483948286
20.769804922956066,-0.344286414200861,-0.0742729689867364,9.528304466517868
20.76502229543878,-0.22877503288679077,-0.08548411731820976,9.53546278201079
20.789430391013035,-0.11101104640685062,-0.05222867340700545,9.54165516841627
20.784581650641307,-0.04902547780549772,-0.07061715761417102,9.535842318764065
20.809122611142676,0.06203603727769239,-0.05274669027544769,9.535478842865006
20.804146766210767,0.18667778013390135,-0.06483485528025118,9.513304831855674
20.828814633801237,0.27007389298200907,-0.042783671916490136,9.540355585866926
20.823700997449055,0.3848978095010779,-0.06834125445562807,9.520622464234126
20.84842284805594,0.5803131055056884,-0.04929837846460728,9.553150770916123
20.843194835039018,0.6972916044786905,-0.06309564107060624,9.511391760691303
20.868145380353447,0.8486696202868818,-0.04683220801647461,9.541369676784663
20.862770664406266,0.946764948973064,-0.0526428875823363,9.53789793192456
20.887840058381148,0.9745626143286736,-0.049482403618531026,9.52901752478314
20.882324380133035,1.072354334577658,-0.053068885681035495,9.517767961726497
20.907466154068597,1.1230491507479254,-0.05450850678128973,9.509512263521154
20.90189076111165,1.1504031348216344,-0.04470632533794181,9.547490277019063
20.92875818548735,1.1874873689680578,-0.051783990511855116,9.538452166537125
20.92345334194949,1.269928574144327,-0.05657817246698645,9.5157814435655
20.9488224647239,1.2909432030216768,-0.045087151756411134,9.506285667988296
20.94290898781086,1.409554954861003,-0.04975897761385465,9.549611102965821
20.9684537317714,1.2866297876952584,-0.04475901138185228,9.49843098502433
20.962516589005382,0.992089151932325,-0.05007532203667858,9.512634405378607
20.98812661267797,0.7608802886837479,-0.04902190311298959,9.533755403137022
20.982438378922545,0.7699238227707257,-0.057851962791144136,9.53978753177993
21.008955000961286,0.784504468381615,-0.056496866307392424,9.547806724939965
21.002448247167198,0.776604580418138,-0.052753531278415706,9.537567328413347
21.02896679277001,0.6634509385078083,-0.054350071953679344,9.513354771613818
21.02321183886098,0.47498489684743694,-0.06700672200142292,9.52056826188007
21.049136381386035,0.3481552485934319,-0.05002745945099083,9.519259090322072
21.043779404099922,0.22504300956086504,-0.056324848023871374,9.539009965743926
21.071065625472716,0.03556797211221098,-0.06494444697944472,9.529006717118985
21.064061061934705,-0.05200252740365934,-0.06671582595739577,9.526093830887499
21.090694753601557,-0.21935258812775787,-0.04376204436974103,9.526563546343635
21.08364215990065,-0.4116107797614817,-0.08077191965515279,9.528190805662913
21.110384730009596,-0.5175249777242046,-0.0983789631691412,9.542826955663049
21.103167718998893,-0.528330036463875,-0.053547678575650286,9.536193645995922
21.129990599042706,-0.6193187949109222,-0.0744483872247051,9.528196541250324
21.122767752588036,-0.6543801662113815,-0.06010807919997488,9.513576711361425
21.150744838109095,-0.7505384293297065,-0.04681152815494578,9.511645903260627
21.143155789227304,-0.7856815577989137,-0.08233278723923837,9.551109996305785
21.170451380342943,-0.9135383710467854,-0.0605570000230317,9.523130451987035
21.16274858172477,-1.0390827814839882,-0.07721947848785056,9.5485699550508
21.190098623998356,-0.8462689381915077,-0.08194753831655624,9.541514508060706
21.1827944046443,-0.5403261912710453,-0.044235724939937306,9.5355018021453
21.21097816614317,-0.3396457895871762,-0.07759749817068654,9.504289598043673
21.202668998722352,-0.31224576508046137,-0.06633853471734777,9.506810849002715
21.23059838493025,-0.3757769846372887,-0.06794611951202076,9.516835647198988
21.222197444247694,-0.4194984786936809,-0.07189714543392067,9.525763594089232
21.250295586664382,-0.3589052063028622,-0.05320975949918006,9.523728170420183
21.241755915019503,-0.24400514025592768,-0.07957482962059702,9.518778145750364
21.269965214954894,-0.09126013729505363,-0.05685669914970787,9.527697224014876
21.261624650142394,-0.02628732770686708,-0.049732969052498535,9.532542328201721
21.29086449345402,0.06265966339581953,-0.0651604568134501,9.517517749888105
21.28167379185978,0.11653759745243897,-0.05829260502031523,9.536042466385247
21.31054788747185,0.2228473421287959,-0.05686673816146021,9.545045773624032
21.301157032877068,0.35077484189859903,-0.06234900111582979,9.496646367208681
21.330226458203647,0.4262922456751023,-0.06274900544310427,9.525430671098018
21.320628497080513,0.5323842274793873,-0.05256577443057327,9.547289769745223
21.35018613347194,0.6683037236294064,-0.06523183597842667,9.518688274842738
21.34126268924432,0.7541639819110584,-0.04178919606062749,9.528405538209627
21.37060591420191,0.7582246092268489,-0.05258789489566999,9.530890508672616
21.360733945198053,0.7474592794845296,-0.05488595317647012,9.506388445012268
21.39035132938228,0.788408989847645,-0.04099803198131286,9.545290821898751
21.380361195232346,0.8183420535644439,-0.07055039617738454,9.510968385117021
21.411197301541822,0.8832386154521471,-0.05404140894533541,9.511662287010154
21.400584994217727,0.9136889638632548,-0.046123615595750615,9.538651699730934
21.43147594020238,0.9010089115274831,-0.051321441594616095,9.536058812709205
21.4213386722696,0.913113086680528,-0.05360644649799055,9.497688014885357
21.452566970771787,0.9077313466373677,-0.046974834191893175,9.533820906464017
21.441632660584997,0.934248366984641,-0.057080001289052884,9.523484964729223
21.47236795826878,0.7954239721207811,-0.05774242235894237,9.513277093025163
21.461079661059312,0.524406407761923,-0.060181829557628776,9.527669637633908
21.49207352147176,0.3698004398446402,-0.04956642788279023,9.527715938531147
21.48053031932004,0.3146717321385255,-0.05915704228722953,9.52553512503947
21.511859890735014,0.39165055195329435,-0.05342145818274967,9.542361596739694
21.50000014611841,0.37599282063634515,-0.05573319168298177,9.530153357167487
21.531649044849434,0.2746834351026469,-0.06340227371580118,9.54227747510092
21.51944813670916,0.17522062094496446,-0.06473181698033437,9.528857359555236
21.551366613929,0.11592271184598438,-0.06923268280506199,9.542854341798298
21.538878229629738,0.037937674508371086,-0.04852584124742233,9.506373225643108
21.57116380009536,-0.029321600881361144,-0.07261770844000344,9.535634160017214
21.558339646217892,-0.04271051922232261,-0.05542082609467184,9.537368919163578
21.590956700888455,-0.07776751361272795,-0.06977711523122575,9.529644005449144
21.577747145043165,-0.14643178327189724,-0.06121228699793347,9.52268825313369
21.610557364705244,-0.1980761551563376,-0.05289558735336176,9.523960708067305
21.597803146929774,-0.2586769127621958,-0.055081654784756316,9.508073046685004
21.63187249749187,-0.2890862115466111,-0.07343795097716367,9.536418839230556
21.618582976750297,-0.2791336987341037,-0.06615732794065754,9.534025081320449
21.652522807687305,-0.37121045673229924,-0.04717946036956509,9.533195066247721
21.639212358552967,-0.4506282686101497,-0.05510000111430106,9.543796655179804
21.67418336028714,-0.2248386106786654,-0.06500389292050981,9.558885012569064
21.659399808465636,-0.11656900858978632,-0.07932417087649252,9.501386377139509
21.694006525128508,-0.08379315903326294,-0.045516788597927106,9.501328906169585
21.678779866109508,-0.12457202233685404,-0.0740453110922545,9.521626229832112
21.713810913375514,-0.06705245367788644,-0.042334922495103816,9.537046650318327
21.698152021710726,-0.04325456517229679,-0.0708331574765662,9.518257620351093
21.733662439076806,0.057241156166587905,-0.05596557258242706,9.532332577622162
21.717548964479775,0.054580345693325844,-0.05614490404763174,9.524882625218993
21.753527354823927,0.05521708821936783,-0.0524583320528851,9.53876692055407
21.73693757494019,0.06046870976138401,-0.05642522083928961,9.515320954997268
21.77330408443099,0.12312055925922169,-0.06737087991156736,9.522415362233737
21.75620970552228,0.19338804944319143,-0.043395899245985727,9.528012195989104
21.793222084595527,0.22929491274805416,-0.07387818839256154,9.527539459525626
21.77558008011332,0.2513914224361801,-0.05175851393739137,9.556086912399758
21.81308204873853,0.2748081216703447,-0.07309427783708114,9.515839026970811
21.7949870981566,0.32389640606319364,-0.054485496373416056,9.535116073390732
21.83293749935109,0.36583089412090386,-0.054028602781353005,9.519354808047808
21.814486120057673,0.38584130575156733,-0.06000702202819055,9.507185799850703
21.854077918199472,0.40831673760634796,-0.058394616468055334,9.544033477081966
21.8344599206047,0.410819373428139,-0.054015178571637464,9.532807795307466
21.873900840971835,0.42900759315117276,-0.059296379479769915,9.515397483126806
21.853771588777395,0.4288856776487444,-0.04457841091974369,9.531359459830623
21.893856676864942,0.4824723366230367,-0.058632192855782465,9.544072071439178
21.873058981630074,0.47001520889037557,-0.05930790647689841,9.512168292239783
21.913838277019423,0.4072725203172215,-0.05076875084489742,9.535545950943357
21.892289061664155,0.3523842179761833,-0.06640986255357048,9.51753075927382
21.93376730667675,0.34976372851681425,-0.04849700971879513,9.523837731329815
21.911515868625795,0.3378001816225963,-0.04983900189084537,9.515382272564048
21.95379309003329,0.31942032788373925,-0.06112154760367509,9.549275776966079
21.930736717739137,0.2528738917136339,-0.057228672735723136,9.516734186997793
21.973841292991583,0.19397931586687234,-0.06233170870407916,9.521572599070446
21.949928825319283,0.1515004074885736,-0.04627169808979756,9.533915848281094
21.993854248554968,0.10924171038409164,-0.057317798064865505,9.516228290807126
21.969041802741465,0.09290522423030771,-0.06089383349714491,9.554607156529745
22.013955615282804,0.07256530734105086,-0.06748807643331398,9.515243868731865
21.988160674002728,0.06886056624005052,-0.051093625180517625,9.53364284864671
22.034066508635696,0.07480731701072595,-0.053100663534159646,9.511191790955998
22.007305909694868,0.01190833465063334,-0.057889721106323164,9.540819778822039
22.054183584600086,0.012362131429515403,-0.04831809401400888,9.52837346062372
22.027205437059443,0.042682488711064746,-0.056068930338371264,9.526014544938176
22.075454251873946,0.11890863075690701,-0.06301082628301806,9.535548177215091
22.046276680729623,0.18430090868629284,-0.053729409396266095,9.538085273489724
22.09564078267728,0.19506407913541826,-0.05233127130050541,9.498986611533065
22.06527865681037,0.15983030003179569,-0.052976481091179306,9.51917389102968
22.11591654801735,0.16844312530225275,-0.0663472886823211,9.527433188543872
22.084173046302183,0.1931497277751151,-0.059876808958630595,9.536389874750238
22.136243380881847,0.19136740636531852,-0.04970724386919244,9.523425844377941
22.10292247078032,0.1953907371687056,-0.04939886123644771,9.529083100220548
22.156530282008102,0.2133219912693417,-0.053749001970269786,9.510365860235227
22.121898638854947,0.1759378956025208,-0.05134646135664863,9.52048688924023
22.177057184957345,0.15818840045305763,-0.06151502205767403,9.51746700623104
22.14062647847191,0.16038969146237428,-0.04627978650423545,9.536408799437401
22.197577704773636,0.16666302304301278,-0.0632177072343813,9.525089357444562
22.159284619925657,0.18241763934661626,-0.051062088123892894,9.527913914519758
22.218153779919508,0.18150051574285345,-0.057216450958633376,9.519935969184308
22.17784319301742,0.17645046618578153,-0.06253488374874294,9.537155077963705
22.238885816551466,0.17022240162988478,-0.06414868426562041,9.550720826268943
22.19632094972472,0.1691315596790485,-0.07211827620299534,9.534801433816325
22.25972522861876,0.18886968262938172,-0.05379117181203171,9.544881574979733
22.21465258656608,0.17295580890744894,-0.06843755756651983,9.5250963916221
22.280616934109425,0.1829972618590063,-0.04445390251338098,9.547340943692323
22.232844742727135,0.16451925312416385,-0.0821583279759488,9.529680078942631
22.301735069619124,0.16769057576420449,-0.06002917614599301,9.55676234730941
22.250900116110515,0.1701761427060762,-0.07254080334678259,9.529832559982598
22.32303158206909,0.17950990033614447,-0.07549863623353158,9.53086442014949
22.269581100391637,0.16272826880816563,-0.06733602416926346,9.540233923632965
22.345584856219485,0.1849263908548024,-0.04992648686844089,9.521794670898258
22.287290911630517,0.19286874172419138,-0.062004709802786065,9.508041941178684
22.368100114017047,0.1869152509183957,-0.06218505992242908,9.543979706784251
22.305711198774638,0.1828893232963046,-0.05769977801405324,9.542467004665871
22.390319033314636,0.16919766605088588,-0.08151751850885815,9.526956431685116
22.322585624028797,0.17673624729397835,-0.053946843705235725,9.552618887000088
22.41273368480571,0.17204660421308876,-0.05689102399054607,9.527957944235979
22.33916806567152,0.17469039306522363,-0.06254126789061397,9.539616293332571
22.435693116435502,0.19478755076444057,-0.052753971354947415,9.542476858323123
22.35529760357626,0.1670907937560428,-0.0723657168273689,9.525281408990576
