Time (s),Acceleration x (m/s^2),Acceleration y (m/s^2),Acceleration z (m/s^2)
10.867728720657455,0.19552223957293832,-0.05527338092323643,9.556287633691362
10.929683622372465,0.17321976378689544,-0.06122524228874565,9.542386841550396
10.890757237151961,0.168791601295637,-0.07572789298052214,9.524695228638555
10.948013166438693,0.17775337092852095,-0.06054046982125417,9.54295434467776
10.912902938118123,0.1880736651423803,-0.049627481607280505,9.545408397898155
10.966825587776187,0.17710305603105808,-0.062187723322447146,9.524556722791122
10.935684892083572,0.17490103412743915,-0.06756535911103549,9.523056564696027
10.985869463569259,0.18628064323837396,-0.06702256579294988,9.546257466309717
10.956998522370474,0.17134861465836568,-0.062160391752702396,9.53699237158468
11.00403069843572,0.17140156031935455,-0.06965988312391315,9.525476819448285
10.977838667995831,0.1800644556399419,-0.063606845326685,9.5650912949495
11.02264317450686,0.17635868842768304,-0.06790413955144753,9.537650225741514
10.999814163436794,0.21352891288108597,-0.05954911505824392,9.515008312215294
11.041887673828773,0.39311356668222375,-0.061025691118052484,9.51949150019798
11.02035685927527,0.5105980905578474,-0.0664625919235157,9.496188260695458
11.06072116677695,0.49336381816975144,-0.058493179105421386,9.504644152782655
11.040865212885379,0.3109752678368388,-0.05337629321034432,9.48959207436784
11.07962715587918,0.03237376159448002,-0.0588124215753475,9.524356107698729
11.062293713494281,-0.15230989419091606,-0.0524233565074556,9.538611071370983
11.09940615959362,-0.20962088347989444,-0.0578959473689993,9.514101950861669
11.082656118678353,-0.18086082463792877,-0.056223759685533614,9.523259905169743
11.118364095936705,-0.19254160911737653,-0.052436192024489056,9.510257229119569
11.102861232757785,-0.29287994024473063,-0.07241517992368308,9.507071985669409
11.137385688370294,-0.3181003960310599,-0.05695942377886663,9.547795793007964
11.123084267519388,-0.18726669031764415,-0.061699818852719,9.520285788064065
11.156487099769205,-0.012594356159968451,-0.05846614660178114,9.52770166782738
11.143256415346618,0.16466105124542932,-0.05532470783873763,9.491876583146025
11.175617130075922,0.32362614013195096,-0.05346330537161115,9.528186820118153
11.163306598966289,0.39039332607260524,-0.048641397854031286,9.51391711942553
11.194778097490547,0.48458803816662616,-0.06478666325007044,9.522485920323849
11.183392990719264,0.6801989664191778,-0.052003118782461555,9.532508502914157
11.214008599116962,0.9227809590370281,-0.053138749702253255,9.531739034358298
11.203438870295699,1.0871702053622156,-0.04587858256951456,9.513420378426527
11.233245656281749,1.139618045464308,-0.05051436340926991,9.51127366047443
11.223410061609686,1.1994013243876616,-0.05251451919472736,9.532664348803499
11.252505575441049,1.04658865674452,-0.04953663048135063,9.513615292438802
11.243378202872334,0.6868374424382655,-0.05155387150045062,9.50060572680883
11.27184503945319,0.3178635106524566,-0.07036811653354033,9.543148269164305
11.263304916363959,0.12248730384967367,-0.045733227302745406,9.53638664129346
11.29134368193018,-0.020073862086305544,-0.06518870927201281,9.525686142067118
11.28429381145536,-0.14969042835750432,-0.06349687807383003,9.52294214034822
11.311523715113678,-0.40285946300096426,-0.06707942050936383,9.522782450899046
11.304058145807547,-0.7634020386987029,-0.05932622588286799,9.51867640314865
11.331432029392909,-1.264792088837052,-0.09545285126880565,9.520604502130796
11.325146807466433,-1.4345215217346439,-0.08095666843310641,9.555342090959611
11.351695339943268,-1.169027562879842,-0.08443665664618145,9.557178763057927
11.346143540365324,-0.7794189490188059,-0.09335433547555774,9.515496064814227
11.371503609395962,-0.49818790402696655,-0.0653070150018236,9.494705726013606
11.365886766337917,-0.4194717996574393,-0.060436498748265,9.526974383011469
11.390905298554538,-0.33599310084456285,-0.07927072261891817,9.548297589184461
11.385728686885946,-0.15645057727916542,-0.052852162145016014,9.534983723853225
11.410358077093347,0.12993053264464632,-0.05432990925543464,9.511204743919555
11.405569090431396,0.5549382449632095,-0.045740028669166946,9.526439766755301
11.429778404433813,1.0440934831984885,-0.055471262110556654,9.521122110070415
11.425368134437687,1.4622946016337375,-0.02744921371013292,9.516156599719924
11.449184030435518,1.70856502109846,-0.053269930764603554,9.486390564676084
11.445171263934553,1.836291720810348,-0.05148315603242225,9.5208318482301
11.469428996168748,1.9465763999351997,-0.02406978648981729,9.52253157650858
11.466341052202186,2.013836441938474,-0.04013335572925312,9.544520761948881
11.490202763011096,1.7343519482400402,-0.05114256685046953,9.495398757449848
11.486718030441741,1.2807688016765244,-0.05182328955130401,9.51585694692561
11.509541055604583,0.8996167622351329,-0.050354376935553356,9.517851776593195
11.507263135704394,0.4716338248654264,-0.06100875205952764,9.5152619131357
11.530189141511228,-0.033233862047466416,-0.07710971326495175,9.513701680505081
11.527250169748848,-0.3439997192973473,-0.05608092443842064,9.549675939172454
11.549760547100881,-0.9115397083472702,-0.06746413363006357,9.512431567909688
11.548745318781743,-1.4405885983687172,-0.10491025256148853,9.527274498848183
11.571176189384117,-1.730070642259708,-0.10472163045682255,9.531900915474088
11.568747892036889,-2.1005109715679193,-0.09627755722364167,9.53246412370635
11.590766065259006,-2.044675225934233,-0.10979119756247546,9.540844915402792
11.589549146575067,-1.391987380684103,-0.08309532418110692,9.576974351881697
11.611201950348448,-0.9225829514411301,-0.08443827440508284,9.499730548863944
11.61029615292258,-0.6478406391634683,-0.07148722224435061,9.528343924507979
11.631594899687052,-0.5027742772511342,-0.05350540712221244,9.497086981629842
11.630107616077549,-0.250267847466098,-0.05845591672431436,9.551192334381737
11.651126868786577,0.15519006665912569,-0.05173099419656741,9.536973471804092
11.64983567939774,0.5900138160502872,-0.04826221182652847,9.504705463489117
11.670659333415404,1.1730785638140249,-0.04812092002913808,9.53030243776206
11.669535763009653,1.6616162592025558,-0.04856680939674698,9.482868544243923
11.690181991913951,1.9530959174561136,-0.04658120711392114,9.495023856707796
11.689214665969622,2.0232242348400735,-0.058921581511867535,9.498940012233634
11.71005273233485,2.078236417980306,-0.03789149869521907,9.549199414522203
11.71017674047379,2.122568465259159,-0.012413617071400075,9.530004736743926
11.730104383529394,1.9887668278708117,-0.046986891948231795,9.508127995521123
11.730696155289865,1.4428240298213735,-0.04453343855114874,9.49432143081062
11.750650035011997,0.9853813902474239,-0.06178029041856983,9.535844380876888
11.751596163962828,0.717881407079359,-0.054148685341826444,9.523419508220046
11.772382660044812,0.2886770078798354,-0.05139925383839009,9.516578917204994
11.772882497994903,-0.20207240395758502,-0.055123490628084144,9.51685802832714
11.792999015265536,-0.5904405720707123,-0.06087187740036346,9.556254017821757
11.792790619124776,-1.0962053889816104,-0.07686289093328094,9.560663964961316
11.812454518444559,-1.5037356113519857,-0.1124979245204588,9.528191243443592
11.812559546033711,-1.7471226061403764,-0.07859117573926942,9.53613577023695
11.831991684613385,-2.0636390837261396,-0.0822034733344646,9.515653595129484
11.832320844562204,-1.961310476171548,-0.11873341571879767,9.551646948631719
11.851498372934635,-1.3405679344027646,-0.0815326540859853,9.560275159266292
11.85260557574374,-0.9455949578732932,-0.07579696391858634,9.498001431393861
11.872231598032352,-0.597812924844905,-0.07427692243383048,9.512543896752538
11.872638617316461,-0.43148839068346856,-0.045889267442206144,9.523823732818283
11.891695307600267,-0.22064557752387087,-0.07775515728892195,9.51707971399237
11.892314841520518,0.13793892193550683,-0.07784145328803459,9.544611887325718
11.911284459662028,0.6492130097163975,-0.03521033901093725,9.524853537572543
11.911979724671024,1.2507794632290679,-0.0638662697144502,9.53872371852099
11.931279385737554,1.7317636285263243,-0.05267458189609625,9.510055293406259
11.932873796105959,1.95125422404054,-0.0391895592433236,9.513539487319633
11.951303741406308,1.9929424496190435,-0.05257518163290797,9.507151043940738
11.952532319573592,2.062952128617082,-0.032342471034486384,9.518202991644417
11.970887765698757,2.1268582424758544,-0.03706401911988685,9.523091427254112
11.972163485982216,1.910120346930153,-0.05114941492296579,9.504395931621588
11.990441288087665,1.4426817955420173,-0.0389170571305313,9.512658802768335
11.992662746574092,0.9132718995720245,-0.06120386950816076,9.538810734039787
12.011053495799064,0.6538866874951128,-0.07010702923050526,9.53874816212488
12.01251990332074,0.31840786557146045,-0.04954458005851185,9.497424519852284
12.030632163986198,-0.11636376882370834,-0.07419721479779709,9.515090070644959
12.03223147070726,-0.47600703680568496,-0.042249748276115155,9.540136919176142
12.050221511406557,-1.0254301378288964,-0.07910353593348028,9.539056078428843
12.051895189350523,-1.480076735943424,-0.08338997200349621,9.54854580484846
12.069742266456197,-1.7216832390111176,-0.08506346459368672,9.510865757906299
12.071589226434654,-2.038679555870412,-0.08759550502234414,9.527870816040465
12.089332259097885,-2.0263306248436312,-0.12012694881897333,9.540874728711836
12.091299433714992,-1.4683262569029327,-0.08201391542323953,9.563597571878475
12.108913155487729,-1.0217556017724556,-0.07210408184687857,9.529962188507387
12.111025283571763,-0.6843119634168568,-0.0821512777545392,9.503856818165065
12.128361059653926,-0.49811181442490693,-0.04075322853270796,9.534232160792156
12.131338564858474,-0.28688883209369836,-0.06387801165514032,9.529750472873875
12.15020438869032,0.08811507008633408,-0.0600139456357569,9.540790690266821
12.15225830667261,0.5881291536316616,-0.048633994084439074,9.533557093642104
12.169710022708625,1.1999243847834482,-0.04716002679653055,9.535524349091743
12.171924555559027,1.702912000522591,-0.04767492024522303,9.510108643653323
12.18925268860966,1.9036236241966624,-0.046064846059513734,9.500695591552
12.193009299420172,1.9802953006709838,-0.04902278573753995,9.51108748975781
12.211042988865831,2.0599325350049673,-0.032498029572352524,9.534457712287132
12.213202240764407,2.1115839514414394,-0.036644205105519384,9.522508112991051
12.230501571724336,1.9142484739060963,-0.0450594546921659,9.520249029495252
12.232889094971378,1.417093733600542,-0.04148383213373282,9.511466489389349
12.250105592779946,0.9603747663652799,-0.0506275209468091,9.535419088748377
12.25252700390828,0.6684340565279482,-0.0623848991442855,9.54189935068252
12.269642098549703,0.38795762564762354,-0.05884579223402797,9.49488380200686
12.272310879521875,-0.06430806996311737,-0.06588907311201046,9.515582381780488
12.289232591294502,-0.4280652593704069,-0.05195296735630598,9.532281189608838
12.2919245208652,-0.9242694433481597,-0.07022315611790185,9.543812782190763
12.308835471133339,-1.41285574138205,-0.08965175215035735,9.539132189202514
12.31161264441236,-1.7077157776967837,-0.10677678690927792,9.518364089260823
12.328442441991742,-1.9993696281967368,-0.07678358365061687,9.521233351978521
12.33130450042245,-2.014956229805158,-0.09308316971895601,9.542064065253792
12.348007155898284,-1.5047085330723005,-0.09792964887605989,9.56100751140848
12.350932553054852,-1.0250915366213462,-0.07892426375556354,9.52896368463692
12.367562252050396,-0.6787045247560533,-0.06923379265986472,9.511353204380134
12.37118487496824,-0.5060117297389553,-0.06216497426402694,9.510872990242897
12.38845371171995,-0.31233492322987816,-0.06345085545798365,9.543718517379592
12.392221055466132,-0.017689352211861905,-0.08609588861356554,9.52884397348025
12.408816677085992,0.5000769633061405,-0.05175990487358479,9.525764963276714
12.411892984441751,1.2002998778178071,-0.06031963880867865,9.537061458812072
12.428433355440154,1.7536540904506623,-0.04380907694390021,9.527426019626422
12.431572879212075,1.9186133959116243,-0.05011518427787531,9.492105759304662
12.448051147258434,1.9318864663547906,-0.043105737366298386,9.503573833936944
12.451228731248634,2.0489966234337103,-0.04322944449229219,9.530740560377106
12.46758386698074,2.102948242896842,-0.017146263379031655,9.541774077871146
12.470816203332738,1.983541990783639,-0.04600475357801264,9.504926670172273
12.48723052926551,1.5533212227281459,-0.04751847612696089,9.518986288374183
12.490547797120742,1.0513318209135674,-0.050222263060972355,9.536790002272001
12.506837196227231,0.729048343743334,-0.050463721898435746,9.533333839607812
12.510242872820756,0.463654081792932,-0.054192420359103655,9.501798953202771
12.526357630393324,0.07501269759804965,-0.09060057336456206,9.48853535034441
12.53015329233926,-0.29908331819930695,-0.05317799843173233,9.558693811307696
12.547172114798666,-0.8393422449857016,-0.05277345649181971,9.53852306612723
12.550319163691682,-1.372606324038261,-0.10714439352512693,9.55221469230624
12.566949576331973,-1.6623235975784947,-0.09305697435957248,9.5382710243911
12.571174918548166,-1.966062773727705,-0.08074688303100114,9.537879227852144
12.587224656282038,-2.0538682194298246,-0.12687710694565005,9.525759162565839
12.59079518788655,-1.5859171643524936,-0.08268472411505912,9.588422267246958
12.606875974319008,-1.0564834082679952,-0.07478579731485123,9.512720764436729
12.610412658702506,-0.7199470093243414,-0.08601408691140866,9.524611202357725
12.626530619298308,-0.5393066698070932,-0.05446076285551867,9.49116030125155
12.62996204108094,-0.42435299297978263,-0.08084972938438881,9.541401292403302
12.646871413864297,-0.07300289516321624,-0.06974528903927402,9.535736358841817
12.65190698610247,0.4469424148403593,-0.05152854898588645,9.529171307803072
12.667595400155875,1.0956791850215326,-0.049244234446261206,9.510191804619152
12.671469941295522,1.6982768367262389,-0.05000396342454811,9.530335617854815
12.687213815651326,1.9340772093046945,-0.03506016989341821,9.51262195573139
12.691081223211084,1.9822994317569287,-0.05614617236090279,9.481919084551027
12.706903668789698,2.0119671907084933,-0.03127526253079115,9.532137810523876
12.711713790711398,2.094005874331596,-0.04526229026597116,9.528270303107295
12.727449978874905,1.9832504902301609,-0.04467981248588002,9.504270309139846
12.73233340214877,1.49295971074816,-0.0487520964912504,9.511303454118709
12.747928367363105,1.0049847192660006,-0.047173273270514134,9.520130534033644
12.752451329261387,0.6996130309246401,-0.0580370589571435,9.534307429379126
12.769725983901143,0.3582809367822236,-0.04517634949295636,9.51026787194547
12.77366174356553,-0.06935523980882777,-0.07763505198049822,9.497772072802588
12.789291605294892,-0.4393957727579469,-0.06283809379487482,9.52128894547971
12.794184783228951,-1.0660969126711146,-0.07229730522036745,9.540820381670189
12.809929807100383,-1.4970177310858892,-0.09010600593689458,9.573583822062846
12.813917460248799,-1.748138736289234,-0.08274990619810885,9.517209104275459
12.829549105127679,-2.0186208520343527,-0.07478295900029726,9.52394874099624
12.833602123242878,-1.9670593187556622,-0.10649848244504419,9.549309690082374
12.849164353109979,-1.4106141835405226,-0.0879656106520129,9.57153900854706
12.853278753330871,-0.9436216929986143,-0.0688599502930338,9.49859780466728
12.868704175618024,-0.6470203078327711,-0.08523565594084077,9.523074097270008
12.873622230065056,-0.5042361059394613,-0.05695472932059334,9.526226075101201
12.889484640037816,-0.31105734973450044,-0.06767658330447722,9.54807480567391
12.893459096971426,0.008559497413213832,-0.07543919625777379,9.506966528772393
12.908964525867054,0.5694892246758615,-0.038303781602611275,9.515854767460791
12.913133895550237,1.1430018494369616,-0.0647650256163322,9.53839873462271
12.92864998596923,1.724715068685993,-0.02475049274320915,9.531582926965276
12.932808271366902,1.9313078686484622,-0.03325097589894458,9.490121826570409
12.948279468499184,2.0473652638554762,-0.06164281447383042,9.495071052863171
12.952444422525275,2.0693305621362033,-0.041026800888966604,9.502886283535792
12.967834116051453,2.0799937854439503,-0.04983665722196487,9.533771493864206
12.972094095615931,1.9831395782927272,-0.02598689044114647,9.524625502736404
12.987448510866109,1.5201177055098958,-0.05016070111849312,9.489073844044139
12.991661612211393,1.0337250152692725,-0.04915340556178552,9.54032846864777
13.007119553544037,0.7411827581466874,-0.05529802861588631,9.5452295700879
13.011329340236522,0.46085945045616206,-0.055822849051927255,9.52050317499975
13.026717274670615,0.004575557450540515,-0.085089767867295,9.503331438992118
13.03098044736768,-0.3524676293521823,-0.07404576338057453,9.554743392398523
13.046346905908921,-0.8107910031378033,-0.05070965834987212,9.52474853378995
13.05064115712284,-1.347714295747648,-0.08193734672374618,9.540050481871258
13.06679171841152,-1.6436753899396452,-0.11992585008578144,9.512600792931188
13.071305855048832,-1.9181268137476113,-0.0877557058145536,9.529632966290466
13.086511141676324,-2.06628831952523,-0.11176296713409169,9.524428756288248
13.090955098858842,-1.6231222895251414,-0.09204218613006705,9.587792220915754
13.106220093420111,-1.0742441026740055,-0.06742349195300913,9.529934559831668
13.11048747175474,-0.7044872524756867,-0.08372117040566841,9.510456452266473
13.126057690269112,-0.5186085420817352,-0.05518695643877899,9.522010707220996
13.131259192653106,-0.3642278264380894,-0.06548243196069209,9.550039660204835
13.147024381125084,-0.04112496079210024,-0.06956466102011954,9.54369722440192
13.152701721497932,0.39797823474568816,-0.04737694511071749,9.53014845654506
13.168046593953715,1.1049103959772726,-0.05841145550451018,9.505677161233352
13.172486281582547,1.7088513881096117,-0.025030482082061246,9.520659930275778
13.187725207370924,1.9615315868469243,-0.027920933426738164,9.486245809483657
13.193747312265595,2.0141212137975884,-0.054754179662262245,9.489324684803316
13.209922095771157,2.0734903661569053,-0.032859162888310596,9.511103817514428
13.214858256982767,2.0600303255591865,-0.0420967695833339,9.53792283139734
13.229835962684852,1.8985497617760707,-0.042536091066650475,9.509782138308871
13.234481407593707,1.4301483297233921,-0.0473539915741119,9.509038577775085
13.249481165149225,0.9982706426156253,-0.04452801674403404,9.532664963807065
13.254160622470419,0.6669980412500132,-0.06312804695329743,9.523661162575362
13.27004879292268,0.3474752545362499,-0.057038710299250124,9.513218331316601
13.274815134976805,-0.06800042044155505,-0.062443598902852226,9.516905005095746
13.290636504151218,-0.5040483793012952,-0.054149793411291565,9.536542671025801
13.295446330866282,-1.0369963373428959,-0.0650668856294047,9.524187129128352
13.310235189524636,-1.4500255182369512,-0.12136252433468851,9.570043798306445
13.316285704459023,-1.7492089576259098,-0.11326251909016716,9.526545886884648
13.332113742619097,-2.0777220909577943,-0.10649272785590684,9.531047762634097
13.336559713924355,-1.887169598002813,-0.09577965133959501,9.556307002832508
13.351682800466858,-1.3375045308753784,-0.09512390437380638,9.551638021368777
13.356186860704398,-0.8782491917122477,-0.07080267877516747,9.526915845711622
13.371259877020625,-0.5790477558868334,-0.08411281539252308,9.525358474415151
13.375799849011296,-0.4665866265073671,-0.05334002595844723,9.515547619665195
13.391122302396367,-0.24598780719499483,-0.07805188661879747,9.538567780365103
13.396582092034059,0.11166807384883239,-0.0736130271463478,9.52157065465127
13.4114299292435,0.6345093336418716,-0.03327666482389097,9.533544605311555
13.416191768083511,1.300386369617478,-0.05769126371747335,9.531103336939552
13.431091098993786,1.7936621847764804,-0.030433088005747243,9.52645383066634
13.435828195271291,1.9790318970101135,-0.042676005175401856,9.496945353045685
13.450670883999035,2.0296175856776326,-0.05014590347676727,9.509208050311944
13.455430285422826,2.087021339154227,-0.018953577472103616,9.520299191120953
13.470319093183313,2.117143732816922,-0.054620249431242364,9.532364464525509
13.475078533576013,1.8979559774469557,-0.0448260138254453,9.502132378454961
13.489972556859463,1.3675706073945944,-0.04969182339632296,9.510290568079064
13.49469622916291,0.9086588416703935,-0.05504524970088731,9.52691975734077
13.51004605766885,0.6523372109013807,-0.06286534445690553,9.54958650307313
13.515996186606742,0.30081002037905225,-0.049720937093023665,9.490886184888033
13.531235624631195,-0.1323464969356667,-0.07143782294112049,9.51386169534172
13.535989425571719,-0.5115555885581021,-0.05870481160760409,9.544288015930848
13.550836816057577,-1.0543835801886208,-0.062312992063602995,9.53430453546464
13.555603802810609,-1.4784135073923503,-0.11729534934799345,9.545642145630694
13.570405463262189,-1.720989335712932,-0.0824380026701139,9.550020399495924
13.575269725687072,-2.009883956466435,-0.10164280484552783,9.523306261920627
13.590010938491597,-1.9223001674543472,-0.11304101269584706,9.569634215373297
13.594931630579854,-1.3823759578961767,-0.07445351394971199,9.569997887168684
13.609622000888386,-0.9402099989055539,-0.08615017425859132,9.513997657658548
13.61486780357031,-0.5950558907365509,-0.07298966733307219,9.522919062715221
13.630399483411166,-0.4685599487763083,-0.05463259858636102,9.519271078939473
13.635896144174316,-0.2775702761083515,-0.08809065936308748,9.547773246989049
13.65102546060248,0.06817023407459419,-0.07519363138300458,9.513520167792718
13.655764523657012,0.6497960429369111,-0.03976058019292976,9.558694533911549
13.670570233837902,1.3535605413075056,-0.05514191371090217,9.523203774335641
13.675352970875865,1.824370924426053,-0.0362224642324517,9.511473601562715
13.690184199738198,1.968514574401567,-0.05278618011566679,9.494280115438889
13.695197133619631,2.0665444504977155,-0.036364236244247033,9.509475355716338
13.710903715786358,2.0612890988440173,-0.02393197614539201,9.52121821955216
13.71560105771799,2.059620354792575,-0.040602568181959564,9.524383417424472
13.730518252402089,1.8318569728920377,-0.04462576627167288,9.49850019568006
13.735256881913884,1.3530245280078512,-0.043527047556191585,9.522320245595312
13.75012009549927,0.9308807926437284,-0.04353035801493522,9.507102144556576
13.754867764860242,0.6375781203350204,-0.057900204316611574,9.541659815120429
13.769736209834223,0.31751816160422686,-0.05433751482220506,9.502008197213161
13.7745048817804,-0.09889146807600341,-0.09494667630394685,9.537633366584036
13.789405822777551,-0.4594333632814498,-0.05030022745738307,9.53670733569304
13.79409193860995,-0.9855283758538194,-0.07156482169465585,9.546425529683912
13.809521603972751,-1.449965691885088,-0.11054581153476664,9.53936200474096
13.815849516378876,-1.7551703684981208,-0.08120876286914228,9.51532198474841
13.830563246826982,-2.0564303871469534,-0.09717739341094836,9.518895834943585
13.83639346993001,-1.8872011720665443,-0.1018758943159044,9.551474637008104
13.85118745005385,-1.322838149259926,-0.09051167403075032,9.525431710047473
13.856130357869702,-0.8395328794679828,-0.08958714790637479,9.51867841441337
13.870767633642476,-0.5810234382735374,-0.0572944409858085,9.503351907901315
13.87691009877973,-0.47951949262864485,-0.06208152695127626,9.513093674971433
13.89261051154176,-0.22106358191826797,-0.08403323034756385,9.55231215968818
13.897223860182816,0.18387443736171286,-0.05459875672490526,9.526933392180487
13.912155603805935,0.7393103078880368,-0.04866118819336042,9.529894364342534
13.916931376393247,1.4340620977671628,-0.061987348981714416,9.517426775984553
13.931802725724562,1.8693108842224238,-0.036468101271894676,9.528541511573886
13.936572393166246,2.0176880863043047,-0.058859213401972775,9.494953517702939
13.951371336557163,2.0672545131507802,-0.03926027778358122,9.522949226896138
13.956120572918461,2.0563661291621673,-0.03990999094027735,9.5119898043855
13.970996023000913,2.0867518022803693,-0.02968381538270855,9.537816196346023
13.975827155998324,1.8165686168080026,-0.0546473409533074,9.484209027405763
13.990638949074166,1.2762402920723266,-0.03536201539080634,9.539088692857295
13.995399551861889,0.9244607828669309,-0.054881149864162135,9.538569886907379
14.010929590511227,0.588476860186276,-0.054636961891996974,9.52678339474498
14.016127041138668,0.23609914710477173,-0.07321332629808756,9.49098283571381
14.030823872091899,-0.14016068020365718,-0.0633843223068183,9.544777229368535
14.035748154420732,-0.5178152392239741,-0.0473819057287684,9.518436895675128
14.050480625505607,-1.0862725130971964,-0.0680733037754281,9.565283766639402
14.05539109157519,-1.5153039859301214,-0.1078456142940417,9.517002194212647
14.07009723859344,-1.7263138078174969,-0.08229569430448938,9.55177389295573
14.074956659773436,-2.061460029288033,-0.09744034813314145,9.5241194835198
14.089809572591552,-2.0003235239908737,-0.11198092445515401,9.557388559673543
14.094600488674299,-1.431802598680999,-0.07593554682414187,9.568759572603756
14.109392357774185,-0.9351384136442891,-0.08942732277780491,9.508512247838947
14.114201943644318,-0.5999090249467184,-0.05739457506314835,9.528009442903773
14.128930279075135,-0.5120516474568916,-0.06404332770827048,9.502584623631774
14.134263984173051,-0.3031441232292878,-0.06871119816119743,9.536275250262289
14.149768084194195,0.04729365824300296,-0.0598726567343127,9.541822040095841
14.154384512034744,0.5648846355989574,-0.04905903670624024,9.524929679017166
14.169383038767275,1.2305565468206272,-0.05318987746668686,9.517616574210617
14.1740892439891,1.7713326826545783,-0.031130351369721525,9.528597607763505
14.188955309042552,1.9551575211117704,-0.04889803992626529,9.489272594741387
14.19369169323336,2.0577838754416735,-0.0480683119915343,9.527165968332325
14.208528782116808,2.0718207518560816,-0.029279583332356172,9.522867624236994
14.213300925193158,2.0969905875553807,-0.03517702621468179,9.538369292261702
14.228456884892417,1.9146289888356045,-0.054221361437175576,9.517357746684915
14.234023515196611,1.4034360014397724,-0.041236007548558024,9.49430700317851
14.248813956497337,0.9665097863135257,-0.0520626407686682,9.523685254991614
14.253653382055253,0.6592693885036867,-0.04630079791252596,9.53892722072734
14.268501396521279,0.3408911921083224,-0.056371103301065664,9.476558219089357
14.273196330293002,-0.05351499170573999,-0.06667157233217127,9.519728602852364
14.28821722394942,-0.38022281187094964,-0.053418022913102325,9.518853182545133
14.29383941151139,-1.0175150291858095,-0.0572178122291557,9.53795691360466
14.308629501005859,-1.4895940766200757,-0.12122357457229951,9.540286781771034
14.313504821553565,-1.7242903671478214,-0.05932269713765129,9.536912139953106
14.328369408482564,-2.042800163469452,-0.12092477691531556,9.532863443033639
14.33313144291346,-2.0456286557533514,-0.09875641753624607,9.547130179065451
14.348001239405482,-1.491482470300935,-0.09078518685504412,9.555898850716261
14.352757318519506,-0.9611285276819203,-0.06567560234310514,9.523183710267169
14.367611710560666,-0.6270397737439478,-0.06422118187065184,9.514269682292895
14.37236277584507,-0.5419810612345756,-0.07047328870755866,9.496841489297585
14.387277457382885,-0.37581062517603914,-0.0664238975033716,9.545768486950323
14.391999253856053,-0.058176920485505774,-0.07371484612167781,9.521455184572426
14.407777034516362,0.4962707393941421,-0.0471474216386886,9.542850994535907
14.412660824539456,1.1475164351020786,-0.0540209175444105,9.529415615919142
14.427536548862532,1.7221131839573374,-0.04635293549241898,9.514910644582875
14.432280288418088,1.983580892245877,-0.04581835444489377,9.507575678994831
14.447154924467648,2.0604900092585434,-0.05203815944578973,9.50821587175129
14.451846344219952,2.0746383899570957,-0.013048652952056837,9.528257102242415
14.46680693595885,2.049977965085506,-0.0353296520062258,9.540743398386187
14.471484379931404,1.9061968077427316,-0.055703486785292834,9.506031711938874
14.486466929950414,1.5730174318854102,-0.03605099369293428,9.523470113973016
14.491119399385333,1.1404563048801928,-0.05788210625215424,9.519557241795008
14.506122470424728,0.7649571186500309,-0.0683933173510529,9.541735956631044
14.510677989336354,0.45273682372149,-0.054039139922688294,9.495365434852166
14.525756619847808,0.033728483790660055,-0.08107470756880109,9.523030348788408
14.530259474974722,-0.351729730499776,-0.06397592721339283,9.532892646147873
14.545984297395492,-0.8451012416187582,-0.0499868059380664,9.531038455199065
14.551052892077315,-1.4161668902820486,-0.10083025304509935,9.514680519880025
14.565954108123044,-1.6337105769248597,-0.07414421960066188,9.54428927851235
14.570632845159398,-1.9438123663989284,-0.09303668462772152,9.512405714956056
14.585644683158423,-2.0852916560655625,-0.12064679989809053,9.54424088728793
14.59019408763105,-1.6614599063853852,-0.08144137644287555,9.568945015040459
14.605194978342205,-1.1431884332234148,-0.07936773499589411,9.522958172573528
14.609847990540327,-0.7341708898414679,-0.06913645240984463,9.526915901771915
14.624897382441521,-0.5220767672762895,-0.0692488798095571,9.466491460028656
14.629472375581578,-0.4060069352883568,-0.06821897542290134,9.530527176167547
14.64457073741449,-0.14086532947898522,-0.072954186341433,9.524418816711997
14.649085245302912,0.28116660595981524,-0.06345538669338502,9.553271084436407
14.665078586987697,0.990831584230896,-0.06416828951951066,9.547858783839969
14.669749454229589,1.6169919062056097,-0.054386636548532985,9.511463532153467
14.684810802822078,1.9790236191168975,-0.042356471648465246,9.505255984763352
14.689249040362505,2.0520885290389046,-0.05336619138986641,9.490804875892158
14.704744576611171,2.09202189877974,-0.030260799794047912,9.503976526964193
14.71002539033695,2.0491387069123905,-0.04260485089250397,9.542095445946368
14.725020346485712,2.0215510861297545,-0.044412209072336076,9.509089131984414
14.729605631584706,1.622047023944766,-0.053010499432374424,9.48838251071536
14.744703476891043,1.1814369767959934,-0.04552936368407428,9.529503857581059
14.749231337859726,0.7940414012709643,-0.06410265292265845,9.544349404833065
14.764361115021703,0.5301254111436491,-0.059996950512606964,9.53337870870706
14.768792097484152,0.11888767127509793,-0.05430989554065116,9.50579914405319
14.783981214734075,-0.26687290060912294,-0.06766724732423142,9.531338717722026
14.788425906774137,-0.6716230642526748,-0.042324412855091566,9.530482243087906
14.803645004845544,-1.2399357281939365,-0.09624911991352668,9.532784607984476
14.808055785906078,-1.5779227556851083,-0.08170075166850818,9.510265225220797
14.823316682762403,-1.879755230114442,-0.06579079785713854,9.554159190337773
14.827638892753521,-2.1753081447281026,-0.12178921814397961,9.509839617457901
14.84284320870979,-1.7994771866589256,-0.08922130920306491,9.562745365854738
14.847289587486591,-1.2354239394323818,-0.07322348564043159,9.530884770404317
14.862553627288152,-0.7737815506268727,-0.08281914202063789,9.500954491565743
14.866914563824558,-0.5617185238238183,-0.05549076853470074,9.499234313564918
14.88222124992532,-0.47639450395697314,-0.09348622897006205,9.504727945199948
14.88652300150753,-0.17044502590839541,-0.059230396161062814,9.5579653584456
14.901809058719373,0.21293315272086874,-0.07533514120439613,9.52927446046969
14.906132532364438,0.7665696028790961,-0.044037541527673585,9.52543158226103
14.921466252538302,1.4022919250388843,-0.057272046925891766,9.502496021005731
14.925739793288345,1.8764301074257272,-0.018169333056928413,9.523310627811238
14.941127398081692,2.0512313146577568,-0.053397152790622786,9.490972682824655
14.945423698672583,2.0847951299684904,-0.04166288460167297,9.503681648685662
14.960683069589535,2.0941339703785973,-0.023175890706026766,9.526744611192594
14.96528357166149,2.072342955844868,-0.05295422290735358,9.527200372927286
14.981535921094235,1.8021697208604364,-0.045060815182787525,9.48488778142777
14.985501705569298,1.3235089230896937,-0.0475565220312025,9.514226112570258
15.001099622377549,0.921134939873523,-0.05011732108016671,9.526255047368018
15.005166217732642,0.628878116786791,-0.0467108757674698,9.523635171001064
15.020739221493203,0.29650692928198213,-0.06790653381545361,9.496663408616962
15.024798295382569,-0.12211832698286441,-0.07426182513698772,9.52547532570547
15.04033457635659,-0.5104051051696985,-0.049505448734721826,9.524030890771256
15.04506022043779,-1.144730524529341,-0.09221195104923502,9.51857691183809
15.0611668997743,-1.569385525725978,-0.09070346388550836,9.529282165690134
15.064931562070415,-1.8254123752698979,-0.08029705520888206,9.52895960192213
15.080707173767017,-2.1074396935904818,-0.09645504911073757,9.511190335520839
15.084572016430052,-2.0121134087113863,-0.09909802420385667,9.56045532469263
15.100271548152305,-1.2421205693517625,-0.07584874046643857,9.504359431263921
15.103993601196866,-0.8099117722129316,-0.07639636284862478,9.520449589466633
15.120046383555538,-0.610819010408756,-0.056183106236792,9.52243354858477
15.12376115169274,-0.5316814240669593,-0.0788939932489863,9.499681983461882
15.139723894234633,-0.2781275445285636,-0.09206478637633254,9.546500243459896
15.143258531247207,0.10567416547492837,-0.051203326237009274,9.536478744703171
15.159824622340876,0.6919111193693385,-0.05586067317335296,9.498217944860968
15.163875227873303,1.4555137078422846,-0.046688037599460684,9.51897849003597
15.1803744108573,1.8460054103253247,-0.043796272738282786,9.500233388107823
15.184597423591848,2.0298481587304082,-0.044580741200627425,9.490669816319324
15.200956735553007,2.0573674236939965,-0.045635263204341144,9.518546528747011
15.205154231139687,2.065237715612759,-0.017924435025712376,9.512506864034421
15.22234810655542,2.037337247498251,-0.04091410732373614,9.52183890338669
15.227064385236158,1.7581874441123295,-0.032471986462154885,9.49538877221897
15.243564798998836,1.2593851789670647,-0.035810353334271,9.534711710176113
15.247629199942757,0.8521215548291805,-0.07838189551283857,9.529536154588431
15.263452315216256,0.5424550636856873,-0.058932491828423,9.503343653330056
15.26713592361967,0.1665511094732934,-0.06090083159746082,9.531439408837798
15.283338363210856,-0.2864900745435409,-0.07211644431696523,9.529369618304653
15.287878155320186,-0.7584960585855315,-0.06249273174670509,9.549624363214216
15.30372557177183,-1.3092096786297902,-0.07843200759269336,9.516606003232878
15.307375272563162,-1.612738992615329,-0.10011827485710753,9.517106935855809
15.323381860271313,-1.8555085405933927,-0.07856839801417867,9.559233805189972
15.326983644007095,-2.1754002201122713,-0.11648460490232831,9.50854548327177
15.343039819697054,-1.8596761890774374,-0.08456668522579129,9.579062883400237
15.346587431713898,-1.267058327673832,-0.08792453126794364,9.535087527301798
15.362758098037842,-0.8331114820289918,-0.07480740435299901,9.504012529650085
15.366173091114089,-0.5751602939005613,-0.06330455129042102,9.494464536647929
15.382363371644637,-0.4489606867957227,-0.07664078495046714,9.516789275282617
15.385770490203372,-0.15719249748744693,-0.05427314909533409,9.580839681651169
15.402038522669152,0.2564341519529548,-0.05063732959672269,9.531266229445645
15.405434806319434,0.8356480626120969,-0.06194611608913475,9.526264376781274
15.422639026678882,1.471559930234449,-0.05119323907583903,9.530580321234149
15.425967147208683,1.8845965748887092,-0.034265574572348745,9.485016951524422
15.442393374624213,2.0297738760117094,-0.053666509813561,9.505286603532591
15.445597839422273,2.087566607951806,-0.03952573307312387,9.51391507105746
15.46291230805575,2.106940026923134,-0.041807898780652185,9.505335944354893
15.466166141109223,2.0821295778969793,-0.047542473121508326,9.52263026497678
15.483579171045807,1.7042205288861823,-0.04601165718533049,9.509883009215873
15.486803056902824,1.2879141314602196,-0.046630940743076804,9.521325499122286
15.503375438562623,0.914532104051876,-0.05273527815154894,9.533901747122009
15.506323538577732,0.5829038719325499,-0.051837499984404886,9.509551662144048
15.522982618476123,0.1157942109756348,-0.062071668182016995,9.520934558416046
15.525943341238436,-0.2898700498315536,-0.056080821659534395,9.53882697012545
15.542663188944248,-0.736761371252067,-0.06190262943439802,9.562489054150031
15.54550453275107,-1.3031109814786348,-0.0898217451892473,9.513209158598336
15.562410465753162,-1.6208719516831447,-0.10406830879098984,9.548267785150237
15.565043404339226,-1.8941438364903218,-0.0906615457586031,9.529200125616931
15.582722775258985,-2.133828085293653,-0.10231122300881083,9.522730878826145
15.585819426876766,-1.8536204544955912,-0.10438338070151912,9.575743789558233
15.602630221938664,-1.2069923586248708,-0.07119894774351214,9.525313425862185
15.60527165957095,-0.7871213125517591,-0.08805155084376608,9.496129894314308
15.622908500961948,-0.5688245369799254,-0.07731855015468656,9.516903468869458
15.626027529226599,-0.4211745608889736,-0.05776222116797865,9.514578513584166
15.642915917891594,-0.11835230481632968,-0.07744908806699444,9.555204536956097
15.645578555595486,0.2895907855270685,-0.04789118017467864,9.54740649615404
15.66262274660704,0.8457363601709532,-0.05608872680116362,9.53091832742455
15.665222913787053,1.4604503989271111,-0.06649085310384274,9.508151656193734
15.683284703036547,1.8712981982050088,-0.03588001196810308,9.489878176094233
15.68573491081093,2.0066977949397966,-0.05271182611158144,9.507200340016364
15.7030192276616,2.1167097430388075,-0.03637212858566024,9.510343228516799
15.705262261499154,2.130409879550747,-0.030427292607757263,9.531797290784091
15.722678766786274,2.1038975214649054,-0.04671106835782843,9.512638394031196
15.724801986873311,1.817268740945962,-0.030596818773654097,9.512487796789506
15.742712360629783,1.3024133314327342,-0.045099023162423174,9.512614839889478
15.745565067909826,0.880470415240141,-0.07791626584869595,9.538385630732034
15.762948510235875,0.5559105202149933,-0.04870693982184803,9.5186314016283
15.765098009432252,0.13388542630339836,-0.06944796063276958,9.516591042670752
15.783424741589537,-0.2520338550462864,-0.061720423489235225,9.519293147371163
15.786509288552582,-0.8129854101446657,-0.08027585576931162,9.515612491761967
15.804352925041146,-1.3963261012702897,-0.08893551883108451,9.534709803639819
15.806210808602177,-1.6764029041896602,-0.10183750753194955,9.536961106121925
15.824192363865626,-1.9333508959220935,-0.11426290266862557,9.530950186198071
15.82761548510252,-2.205166031710932,-0.1160695328594629,9.510736652940464
15.845690307818863,-1.716031847998683,-0.07921794347669701,9.580522953894613
15.847405215046441,-1.0767805819149263,-0.05686328119471969,9.536699799350524
15.865325202993327,-0.7253209732396965,-0.08562930225403317,9.475503457965175
15.867168033747804,-0.4976988758013501,-0.05252911759207345,9.526797325304702
15.886021205859105,-0.3291360462215969,-0.07185005056857678,9.546337714112076
15.888122142952104,0.0396224438266884,-0.06624485238898997,9.548676344619997
15.906865545137364,0.4251133126889006,-0.05011605200548441,9.522775903659975
15.907965935824022,1.007984726608425,-0.0628607753110443,9.531373218179922
15.926434050373055,1.6329542856622776,-0.048443266524024746,9.492649752717842
15.927742546877091,1.9279563191436568,-0.0426612296792386,9.520537969264284
15.947130272027872,2.0355490907917386,-0.047505756102559187,9.50306316217495
15.9482688288551,2.118750182934011,-0.037397672087573594,9.492065676677669
15.966792223656768,2.1610152583895226,-0.050594490001974426,9.513886187801013
15.96823385914979,2.083480379457606,-0.044171806139450584,9.536234269047075
15.987689443523202,1.4979310078167047,-0.04966094505747542,9.500876842771634
15.988285317384195,1.086276986711916,-0.04861773704572523,9.540350896238449
16.007257812342882,0.8978120482922302,-0.05457839350146573,9.532430856720586
16.007870999510985,0.3663600351888077,-0.05456516119058472,9.502980716634708
16.026949608816878,-0.12238180451831619,-0.0688406143901622,9.539440457218504
16.027482968662238,-0.6192791599500324,-0.06273916519022968,9.518572184941856
16.04660597813625,-1.1419371491447092,-0.07344960740906968,9.546991325863937
16.04734448156247,-1.5953198975834726,-0.08333182541398014,9.510392130372708
16.067435011217228,-1.785551111605992,-0.08378450028457021,9.536358203801372
16.06828452160607,-1.9508496278551672,-0.09631960048009992,9.52465159908434
16.088172519322868,-1.7243258283535405,-0.10487038773182962,9.548905087978428
16.088707266571927,-1.1001390864564085,-0.059034691671569633,9.545453471092072
16.10916104306779,-0.5566471577040545,-0.06756682741668164,9.5076854802533
16.109574257606123,-0.24163802062768558,-0.06809495771255578,9.496779826388552
16.129683959004595,-0.15617501637699124,-0.06465366247912263,9.520119572474039
16.130813803344807,0.10079652946773122,-0.06663832464222108,9.540939407938506
16.151988697484683,0.44646274550795684,-0.05836595444877461,9.528326022849729
16.15177722738798,0.9254504217901371,-0.04281026355255245,9.526315040367276
16.171927537009644,1.2914318913070097,-0.06026783120844594,9.526865426125905
16.17123317584705,1.5294841955855554,-0.03972388769717176,9.51574211408001
16.191618110211056,1.4750127374584567,-0.04631461832015987,9.512097638764672
16.19071080005295,1.4346334654042725,-0.030682412037237025,9.51297802698878
16.211428756616044,1.371086533074648,-0.03630717022714817,9.525343995757096
16.210358333473224,1.3550171543053708,-0.050997154482034145,9.516091704273004
16.23213203247335,1.2339221640193423,-0.052209683757014694,9.504920107278382
16.230819526362907,0.7865569132470089,-0.04519252109707516,9.499217316741436
16.251926998062267,0.3419928932595685,-0.0775902534446938,9.525345338126826
16.250326381607227,0.07185194500095377,-0.05222592036876838,9.551546628339628
16.271617732037928,-0.1580903349005698,-0.056005557820648436,9.516869949560254
16.26982628149099,-0.3591030180885192,-0.06259661249918279,9.535745277337707
16.291390584442443,-0.49126359332490377,-0.06447293889946337,9.531862620987052
16.289352986980084,-0.6087415441468897,-0.07402574368431243,9.544600483398174
16.311120648679598,-0.8126856721608832,-0.05428189070470042,9.523232846667026
16.308765076572698,-0.9783190617091961,-0.07311639565281572,9.536960837926207
16.33174714565951,-0.7067734502786536,-0.07228323978642967,9.57862564376477
16.329407917826114,-0.47356041143661765,-0.06408159290524039,9.528280994555137
16.35163638571498,-0.13545166957998903,-0.06496771502649293,9.50493395340789
16.348815923292467,0.10095633751451533,-0.061802422314011986,9.509384625608822
16.37143147604179,0.19465618767874313,-0.04735331973732914,9.53296966821117
16.368310329613873,0.19018011974329038,-0.06323478772593441,9.514492576149536
16.391236684065518,0.298548049185441,-0.04892994862860383,9.531796112283919
16.38779981839517,0.43008196742139704,-0.05402740993178665,9.513899434021065
16.411039097649446,0.6091016863374685,-0.05730573988708041,9.529436422063954
16.407213463245178,0.7118637526569074,-0.047323296119214965,9.509871837683233
16.430811681055072,0.7343298463932473,-0.05200934753204073,9.508178979021398
16.426685549851502,0.658987770311393,-0.04797162436626895,9.524529161098892
16.450640455303187,0.5398439000272531,-0.05662422855447568,9.507817260650599
16.4461484311795,0.4532204859143739,-0.05659286233443615,9.554386882525453
16.470476864571463,0.37108111425567547,-0.050392388014775136,9.498715773706941
16.465535672290123,0.20937195349012694,-0.06160845319058797,9.52843266321579
16.49027582014761,0.08544048431018285,-0.049607367835948386,9.522078157233183
16.484961797391048,-0.07864098966732708,-0.0770830117524767,9.53920268738937
16.51007431503865,-0.08921606332356216,-0.051515182976612395,9.506236789207684
16.504418202149417,-0.0616369280195987,-0.07724304933239183,9.531912478217338
16.53000080363836,0.07208743363515402,-0.06358677579878881,9.53638465534379
16.523807361352336,0.1793261439338034,-0.06188644019842268,9.53188311361995
16.549811775972533,0.1994667984404073,-0.058532562071036555,9.519093113015302
16.543191099119923,0.16122051926922318,-0.054697436116616864,9.533594488350937
16.569673440330686,0.14405736037758407,-0.07087347565679866,9.548227316504814
16.56286652169697,0.17270363624334273,-0.0644418671664059,9.54018718926442
16.590758022431796,0.19665924140099814,-0.054960309103625545,9.512350778483656
16.58280066220057,0.17327306524739386,-0.06727111370921049,9.499851516122844
16.610656126735194,0.17942712871292724,-0.057257263068756135,9.546098520873958
16.602139451714375,0.16801874222283722,-0.05908378675098094,9.535674586232231
16.630561060733427,0.1718772741496197,-0.07676383324152498,9.511303314015274
16.621385223824234,0.1876813623225672,-0.05094531471585072,9.526012295233478
16.650740251272907,0.19178846706379613,-0.055239350095302335,9.513328384185844
16.641777949791,0.17854721254109202,-0.05569785313295994,9.51388256839487
16.67147626086886,0.18746091341961782,-0.05270274577666339,9.5414470206466
16.66100511280103,0.17604817812005585,-0.051368368299325985,9.528378158201805
16.691541233407424,0.18027139165192074,-0.06114930724992867,9.535574075470464
