Time (s),Acceleration x (m/s^2),Acceleration y (m/s^2),Acceleration z (m/s^2)
17.75912676276772,0.16601352682027304,-0.05844840976427139,9.542843460541798
17.798958236332208,0.1736486773390278,-0.052721787391336296,9.519599486205488
17.77938395877703,0.16851676520392292,-0.07021510066555514,9.54317865295952
17.817973932026153,0.19046402571457857,-0.047565927438133836,9.539900272057228
17.799532596499564,0.17341136170606533,-0.053927580702794874,9.531537169614326
17.836982908768523,0.17706318231339052,-0.05152790753197401,9.538992537475325
17.819708419789464,0.17432085801528988,-0.06637525273271813,9.521983271436365
17.856080859412554,0.18204853561113551,-0.052288126438453986,9.540516459315018
17.83984927219987,0.1669454718043258,-0.05976324525287568,9.545984126628976
17.87520862605775,0.16652070505972685,-0.07552025582364047,9.520072052597758
17.859901417493685,0.19185501727739981,-0.044812070527573904,9.521270284015621
17.894309982615116,0.2217062432291643,-0.04985751195184689,9.527391440475222
17.879978545065192,0.34525918463865507,-0.05286643943949284,9.537200953375827
17.913498467419185,0.5280551611007128,-0.050733162750264335,9.509506789607686
17.900033470541622,0.6055703389718683,-0.0545406262079985,9.497422321421952
17.932713203623678,0.5633160451821746,-0.06165460986966723,9.497298268431052
17.920047841315697,0.4153312560309187,-0.054065928333166716,9.515187503370582
17.95187178857724,0.2808772417461013,-0.054237830629172076,9.544578556676463
17.9400315298285,0.26976655835217844,-0.05123276446987676,9.532084034694398
17.971104765124707,0.33573326481425225,-0.061530266581773456,9.520889068042058
17.96074370113284,0.2922955623084012,-0.060492161357894425,9.509723230166196
17.99149002286389,0.1467277485404399,-0.059499160950759446,9.518447914376488
17.980851140628015,-0.030584454321593416,-0.06388210655702432,9.530590813065444
18.010932307723984,-0.07116161518657593,-0.05936573527773058,9.52691871354141
18.001914881542387,-0.13235789899827485,-0.042182809892423234,9.516251156316493
18.030967860778688,-0.23983803415780122,-0.07290395100697582,9.513638531884846
18.021819452254164,-0.2301855379068039,-0.05489526850962289,9.519344578209937
18.050277526568184,-0.18697527565720182,-0.06717258909426528,9.538434085596771
18.04164495746181,-0.11797381382104853,-0.06231911306741761,9.530811316322694
18.069586970171827,-0.15433912779563833,-0.04762931074681425,9.502850567473564
18.061542423511817,-0.2543618520665576,-0.07293268532526295,9.528683067839358
18.089016519973175,-0.3233625643573029,-0.05373254094818531,9.548156901769078
18.082422929163492,-0.30844008836903586,-0.054818649166093185,9.530346413007633
18.10932177062858,-0.19758711313548943,-0.06411532739020742,9.515142767019015
18.10225281124183,-0.10187066168114312,-0.053521737744049024,9.518417312357055
18.129132041452323,-0.12018102833140769,-0.052570971983139245,9.506168680720592
18.123285505148683,-0.21494842072906614,-0.08037930191092965,9.503577843213101
18.148983531918415,-0.19707249347038588,-0.05858665126678743,9.542577430331315
18.142903546799356,-0.13218956720425845,-0.06764779581454541,9.542074365249789
18.168733341492313,-0.008595451405861045,-0.06942694173620056,9.506497171724709
18.16403526545871,0.1129562260326253,-0.05660422702193396,9.532276297458859
18.188628676954302,0.18646532305804386,-0.06265407895833891,9.537742309273224
18.18399077039218,0.21090820581767472,-0.07102266788814393,9.522947506493635
18.20958552011471,0.2976458833049811,-0.05463790555592409,9.500804597644557
18.205530723644806,0.41111064180728935,-0.05659055199736226,9.531936733962352
18.22982415783586,0.5709400669721226,-0.04700338967827724,9.523962149858193
18.226415058735412,0.7245465838801355,-0.0518455907834984,9.53803051212596
18.25012005077793,0.796848928878355,-0.05731151103502558,9.491121496418414
18.247308724222243,0.8260119239776262,-0.05558451415878812,9.503263839389225
18.27023166654109,0.8496775753224234,-0.04639813566509573,9.550807124940231
18.267705059328563,0.9712367073123831,-0.05891503758976914,9.533423553728596
18.290843932095047,1.1601013676702383,-0.0512685984932375,9.515392217803386
18.287728439877284,1.250488371927484,-0.049432322267053755,9.522098590057102
18.310328207300465,1.318276239738844,-0.04642627124285636,9.517737918383968
18.308678051678797,1.186071439072041,-0.05008635474066039,9.486147618752037
18.3316581476606,0.9339464997566953,-0.04986069662072982,9.537199470273254
18.329303872016865,0.7945282223294897,-0.056840741555093444,9.540892764456274
18.35112786834875,0.8049814221753625,-0.05633977302981201,9.525832241651482
18.34906831792583,0.8088792650848277,-0.04968097929374539,9.523696478482595
18.37049738128505,0.8109121590080899,-0.04621710594946853,9.51922935672091
18.368815071190316,0.6504691668054275,-0.056227382873210746,9.529695561980974
18.38998504925533,0.5602531305520467,-0.050456000630777674,9.529057512854221
18.38858087687088,0.4155960458018822,-0.05938956366781209,9.498991821379235
18.40949739676168,0.34420057133137943,-0.05348239887180271,9.526677701805516
18.408344459015222,0.28319985282973237,-0.05070673027661692,9.529446603661972
18.42886835188536,0.08857158662053458,-0.07156752853595948,9.528534558635473
18.42803581115881,-0.056020522412800346,-0.07539877098007036,9.519823513656634
18.448431592317057,-0.15537407880722576,-0.05901685216923571,9.51950554167757
18.447798084898693,-0.34525920270717836,-0.06625260207105209,9.536688955337288
18.46869548684458,-0.47055625991188027,-0.05657007417102479,9.520156435757753
18.468629163388773,-0.6592998295480761,-0.06749111504373743,9.530695991946297
18.488334849977207,-0.803340403954891,-0.055422118772908216,9.524291571373258
18.488361699197583,-0.9236701342908353,-0.06807957174318299,9.525365661346695
18.507831522735465,-1.0333318802091176,-0.061583252500069775,9.518292752804376
18.508043889462765,-1.1713743790637376,-0.07936884790330585,9.506370226825817
18.527287341434718,-1.3815560991255607,-0.09853999548948214,9.521781251063897
18.52780867614467,-1.3908907716734809,-0.07927945531969552,9.52620521630529
18.546762707880156,-1.0772444735361115,-0.0944616284061784,9.539340200487201
18.547688911067482,-0.8070896452576447,-0.04646855187303164,9.513734264998071
18.56730544690257,-0.7909201924369157,-0.06391218291391865,9.501049777352474
18.568268903574715,-0.9220196886321863,-0.07704155158397896,9.547237970736449
18.586731266761944,-1.0004187611028126,-0.0704477545221977,9.542539960334235
18.58859937337527,-1.0040295869885145,-0.061048896018331605,9.524309888411716
18.608401127540077,-0.7962769513005516,-0.05515158858347087,9.545825610884991
18.609587682527575,-0.608606636267607,-0.09261366142522452,9.494347476453886
18.62787653496461,-0.3962446098526018,-0.06673332194008792,9.538574315097392
18.629350488599766,-0.28290152995370405,-0.05440391382618749,9.518691266365074
18.647360066964712,-0.1705411804482795,-0.05939066513350951,9.52855452346744
18.649016654138162,-0.04009983863793703,-0.05322825106639257,9.522867847998615
18.666850632163243,0.18727448779701716,-0.05792641757417628,9.546792290237713
18.668754096875087,0.2947034229518782,-0.05683697918259966,9.508133823205304
18.686373022367963,0.4372693834459242,-0.06487536917041095,9.511191579481777
18.688485302282384,0.6617178907974615,-0.044730088321157074,9.530665812415192
18.705884379267218,0.9379719286115348,-0.06141051837147489,9.513092008810748
18.7081383242991,1.1186404639622516,-0.03577781063016783,9.514670045512485
18.725380071782592,1.4175849656851949,-0.051262707230269676,9.528689354007005
18.727862320931646,1.7534386268793274,-0.045142269626385706,9.490405493192336
18.744915017164224,1.8074204288999665,-0.05674119655936338,9.504232058403598
18.74758106489551,1.921688850853089,-0.03856368572509121,9.528803748498405
18.76445461939205,1.9461743181137812,-0.048840689943818946,9.527555265653078
18.76725616306099,2.0007758576792276,-0.04584643297152639,9.50990117527757
18.783924723324237,2.1337464623193676,-0.04302303656907878,9.497337027151248
18.78695676264968,2.252031248951258,-0.02220537950484616,9.54529599048008
18.803468807989802,2.030376475471383,-0.04470873087350502,9.501323928306231
18.806667764831346,1.7729462846196016,-0.030191436311482838,9.522520851174177
18.82301499819167,1.6448782518252014,-0.05690992635493035,9.513134518849865
18.82634973012402,1.5489897105821975,-0.04165880209873972,9.525341357077878
18.842473477198478,1.4759156990073428,-0.055841318939251934,9.528875121157595
18.84610855820674,1.2965160321149816,-0.03904823491657446,9.508400515387203
18.863006111790977,1.016317760955935,-0.059594388740435045,9.526554419489088
18.866706289382677,0.8610365299515407,-0.05323640097380171,9.492120739915896
18.882576933552357,0.7156039321540336,-0.0634314474733461,9.531282318673318
18.88641029530415,0.6167319926412739,-0.04931189103261321,9.53888048214556
18.902125362025743,0.34698461042222883,-0.06962291091576216,9.493089522895087
18.906130846355904,0.15637896530686346,-0.0472700102848729,9.525234743073568
18.922550792922255,-0.15851979483221118,-0.07210515411474044,9.539274115344345
18.92681910533268,-0.338673959040983,-0.07719552789309335,9.491895379936905
18.942130707707527,-0.5213817575869878,-0.050065312648706124,9.545259223348147
18.94648820118595,-0.8700918677962937,-0.07691882102103985,9.505210259793413
18.96160819937052,-1.0325807333245953,-0.08732625988129765,9.50562927749144
18.966470194208725,-1.141718815652131,-0.05730310405686757,9.541477159408268
18.982261708814786,-1.6104646593734335,-0.08847698159875442,9.507160699916172
18.986957739649494,-2.0493725343012383,-0.09112517875722245,9.526605288387062
19.002884317993626,-2.232356845588505,-0.09165009532543629,9.544706072789024
19.00737361315158,-2.266094645998778,-0.08750712133686574,9.511347165409497
19.022414334065758,-2.4215192939874477,-0.1000328654199634,9.53178991937625
19.027108428690248,-1.9787658142661821,-0.08465453371382313,9.568661684322715
19.041959541643656,-1.4890909800446699,-0.0923116029812001,9.528356132749828
19.04680442072377,-1.3444172306680662,-0.08854713066287834,9.504470657254254
19.061448029162587,-1.3756447595790409,-0.06817001629150214,9.509225624203303
19.06645242490319,-1.3675991120856612,-0.08872909640833601,9.551751872164761
19.081009751189615,-1.3035079109149672,-0.06438474237081268,9.527475061844413
19.086146499764595,-0.9692360154900962,-0.07613257236013221,9.550701784880927
19.100571227492356,-0.6883080892104322,-0.0594325485522846,9.522387070798251
19.105841024235623,-0.5617477541047153,-0.065359268523537,9.528719619957235
19.120107674393964,-0.49843053852906866,-0.07113039724882625,9.495249745276267
19.12545762989301,-0.2661251505394279,-0.06776141333012382,9.532041107160392
19.13964786377716,-0.07755096696182721,-0.0652023480605295,9.54578826013048
19.145150903438253,0.05232346782459216,-0.04217128492665327,9.503785375958994
19.15921236849421,0.20287332897229432,-0.07632949337442771,9.533878259632155
19.16484428123213,0.4914928943392663,-0.07069789601695171,9.529226843226155
19.178754936292208,0.6981421325988102,-0.046928945618460984,9.512869303815046
19.184464213692927,0.9463658235299738,-0.05391331838063858,9.528365471758832
19.19828212506916,1.1825115806970425,-0.04047505981907748,9.525541877140114
19.20496188844732,1.4091687659452155,-0.034812561077234024,9.517950251628118
19.218898057504283,1.6344875044704898,-0.06014446485539468,9.509618523721015
19.224768666232563,1.8917349531143086,-0.034047395197184416,9.542227251855508
19.238444888645784,2.215311083831546,-0.01932238882470976,9.514767581998317
19.24446020796717,2.3845558951564083,-0.043921527845854146,9.49996274049026
19.25801629091638,2.4668057344707397,-0.03669431657904018,9.505766255661522
19.264132197700754,2.3995106218056192,-0.023071371724411753,9.504596796346117
19.27751970593383,2.2950519637065714,-0.028970003739785134,9.499124077934866
19.283769269912543,2.292328676272015,-0.05427444544740696,9.522881170659046
19.29709779740227,2.120720690904149,-0.035610567428031,9.546467259975266
19.30344752823468,1.8471967659412505,-0.04499485857053063,9.49816255094788
19.31667509513734,1.687349219836085,-0.03423085313267754,9.531314720394912
19.323119740244508,1.6408007885399325,-0.05649220743175101,9.524782559737332
19.33618817883567,1.4622297360987007,-0.06476636195160179,9.485874741719941
19.342745706657286,1.1330568453702963,-0.04636083590386967,9.525030970011665
19.355764705982683,0.8905715028488965,-0.034653702777232426,9.536879609791363
19.362425343480304,0.8545475763942717,-0.05033676705647175,9.559216141930396
19.375339810524178,0.7665413419160314,-0.0440152110594023,9.483966816795686
19.382109819423338,0.6479261443024863,-0.06557101019105749,9.521413470550275
19.394883567978507,0.4406974640212969,-0.05929472985291868,9.532652339577592
19.401731971019224,0.1405018409951134,-0.06464140008337656,9.500027916032815
19.414383540464417,0.003817858464025862,-0.046990937695178245,9.55243868389335
19.421761607913528,-0.24177656239510603,-0.08824619578902024,9.53417047634499
19.43514294669732,-0.437370405466475,-0.06068203381891555,9.486976322124281
19.44193110219637,-0.6751618395986579,-0.060407297449547245,9.550516732168164
19.454694447937214,-0.9778115454055726,-0.08073194696171691,9.498292843310542
19.46155923672911,-1.0835167153519796,-0.07980064362082591,9.544051844412541
19.47531307001334,-1.2856076962756788,-0.08523687125893924,9.511719822132736
19.48344672302896,-1.7609791153407688,-0.08666261248080556,9.514927190254971
19.49564999474537,-2.090554455748608,-0.09096441966098982,9.536498516363565
19.503041346586713,-2.2397719945876875,-0.09741303426347138,9.535511506954075
19.51526304810163,-2.3688543493888763,-0.10017101827387725,9.521427586572864
19.522701275597232,-2.3579425000199445,-0.1067253914286487,9.524517510248248
19.534812958093575,-1.761558345358276,-0.08957097734665267,9.576434161069269
19.542270827814704,-1.3597928964011907,-0.07881053316461639,9.494025311241478
19.554376560864785,-1.312326873357092,-0.10110934597407696,9.52190319197275
19.561983633347413,-1.2986972267820738,-0.0683229759458257,9.528006291116814
19.57394545663819,-1.3479284297409087,-0.09815971348986449,9.550299038538348
19.581687144702105,-1.4279725355263135,-0.08955993938580226,9.527944947310797
19.593427462918797,-1.0824390683982823,-0.09141743596790816,9.524302384568774
19.60183684908001,-0.6659247639377177,-0.0618744400210633,9.532234476022861
19.61421932535674,-0.5302754086918627,-0.058348078593929625,9.527401518067741
19.62330937724985,-0.37826346853000664,-0.0689785327680405,9.543165869545689
19.635860825115813,-0.16347790189955677,-0.08752587445615798,9.531788388541392
19.64439141961329,0.003959994206306545,-0.036238326069569796,9.508658000907584
19.656327829998734,0.17551691756696322,-0.0684968977056919,9.495860846706654
19.664132366563198,0.46158713173356886,-0.058156091267458264,9.55718671912755
19.675889628551495,0.6855297182985426,-0.0492051495496222,9.491141767224061
19.683815771939315,0.8665738240974088,-0.06028744775848556,9.508048515829332
19.695411662954378,1.1832446031596278,-0.042372966631873794,9.515755274405052
19.703431091649534,1.307409700018134,-0.053101421814076906,9.522837531164967
19.71498081528057,1.507991619505181,-0.04116548079388567,9.50454114287756
19.723120981719493,1.7368137296861668,-0.0670248790895323,9.52302377543672
19.734520812781813,2.0879123514735376,-0.02264510219081136,9.535263686299908
19.743031288718527,2.345117811387878,-0.019566784606584425,9.515632383616644
19.75524126076994,2.4319481545173973,-0.055481808739178,9.482997644326062
19.763344695068323,2.4357362384062866,-0.018900812074752582,9.515264343606724
19.77478443194422,2.296120687579291,-0.04317742591611472,9.502306252981871
19.782989819811363,2.33369487709586,-0.037332116888055926,9.543722206355273
19.794291581687215,2.1604572589722846,-0.02817081890914229,9.49961792453831
19.802649481885187,1.8398924440903694,-0.048953063165455085,9.499311550898772
19.813877181122173,1.6206849546644677,-0.035118775476565285,9.506162596371032
19.822323175629368,1.6062051110123403,-0.05352413414064389,9.543279818091051
19.833429544386213,1.6095646521843083,-0.04324775825670252,9.513919529898986
19.841970516139373,1.3428936345324483,-0.0566893611014768,9.456226670965547
19.85291877749603,1.053300192320707,-0.03958346770073168,9.5482571925262
19.862143145388636,0.8756183540396794,-0.03871270084264752,9.530301944783732
19.873696403688182,0.6967608230761699,-0.05243381180050492,9.533535749053673
19.88214003907583,0.6246825827022319,-0.058325503071183435,9.50280839526231
19.89322778948056,0.5025212456947402,-0.04666094013512306,9.557860692329061
19.901825440371024,0.1986693695654371,-0.059147747770980044,9.4856346765643
19.912810504228776,0.01230051183814646,-0.04435282409754201,9.51225120237091
19.921494818157115,-0.17686495061261134,-0.08478187802509715,9.551552587468354
19.932381043333127,-0.3825033452930515,-0.09085750525094964,9.479402583107612
19.94108026895388,-0.5620325583454757,-0.040869715273002705,9.538542700948772
19.951950083901032,-0.8881426143924611,-0.08851380222273854,9.525579817569419
19.96073447887691,-1.0606927457483404,-0.06947368832695744,9.54522960230721
19.971560050143257,-1.146704467295708,-0.08150053852720364,9.534336734780364
19.98036287272973,-1.5434314496400565,-0.08922888903153484,9.536297175979128
19.991929751989588,-2.032923619341314,-0.10113170458552258,9.531835539732512
20.00107075566509,-2.1820889900777263,-0.09582370372361518,9.551774649352781
20.011668134662575,-2.3028155846073046,-0.09850805129437849,9.528840521084735
20.020606072465355,-2.4416381256477,-0.09297906661401241,9.535409786268735
20.031980429121035,-1.9133108265772343,-0.08017114364936764,9.562598958253893
20.04139831421993,-1.3955003783498003,-0.08516904625599162,9.506183307038365
20.05174992825869,-1.3099138771815633,-0.10797562770953417,9.497224744264303
20.06097771718887,-1.3206839352959148,-0.10287574723787063,9.523931256083753
20.07134068707354,-1.2711829738041691,-0.096821757202702,9.543169625999113
20.080704848055742,-1.3798237835614229,-0.07533252555052855,9.545410892786903
20.092554409185503,-1.1590908192633116,-0.07203647233074593,9.515794489316175
20.102322756459074,-0.7424736131238693,-0.052228641903140145,9.529294257144256
20.112411656429458,-0.5399291610971085,-0.07642934945673989,9.521671966362762
20.122434308080372,-0.41219606068223547,-0.05200183693317476,9.490428536750045
20.13323706797836,-0.2023625305514708,-0.08385256969110683,9.551954189416614
20.142384377197576,-0.013869925084849225,-0.05818412820787215,9.503341069707618
20.153259504121056,0.11636789708442198,-0.06170823001117337,9.499397691357613
20.16421919652343,0.3416034408413864,-0.05788919863844306,9.542921705422007
20.175193307350884,0.641222144845385,-0.04085751643106316,9.493990284395192
20.184864722210204,0.8473208325387034,-0.054765382489052696,9.506884747101386
20.19482654671962,1.1205289935036045,-0.04479964455580076,9.524503529777158
20.204431390575976,1.2794355695124449,-0.04977439076785613,9.524986101040923
20.21530301732182,1.5111648599222662,-0.051251191661466015,9.511934715036338
20.225095467964664,1.7901482828357242,-0.056758071434477066,9.533471230364713
20.234996711411938,2.1877896174724576,-0.027135033746148108,9.527700628820238
20.244704037657698,2.4254821730037173,-0.0335286192406242,9.484430371533433
20.25535350725953,2.4104053018530665,-0.03509197596926017,9.491225660950962
20.265450027573685,2.3787782828979522,-0.04475825730472971,9.530320136694929
20.275079299546146,2.2614264843426626,-0.03152034105766882,9.48893342044533
20.28576148242092,2.374827452603154,-0.0452794898543793,9.510362274653575
20.295806779134306,2.1087603860904225,-0.033336634254368294,9.498085505167797
20.305619232719735,1.7359514152986169,-0.039174719252823155,9.516694357881706
20.315363591900766,1.623431500407151,-0.04382879508566551,9.534993857520888
20.32529988385105,1.6021970478982923,-0.04963980778749696,9.551069235736854
20.334834645474913,1.5437716001948447,-0.06388642930163796,9.47762299574821
20.345506869686496,1.312165311670965,-0.047381470754023595,9.48312192547178
20.355639111481885,1.0050037634015383,-0.04626876187358241,9.544826220407932
20.365408319356703,0.819449457273226,-0.04730647286943694,9.505228710632851
20.37518105432575,0.7009819166358149,-0.05671139106986833,9.559827434620459
20.384995563046374,0.6358426993537304,-0.05107655826233451,9.512668725520877
20.394758550742267,0.4183214840560654,-0.05599859023527054,9.502081903994846
20.404690668080026,0.16539962553698234,-0.055543731997124764,9.501991380881979
20.41479565591747,-0.007672439066693952,-0.049241253766754076,9.545424525347304
20.425514316181225,-0.2557335919865451,-0.10415052562941492,9.511846745423535
20.43484598980653,-0.48418693331836077,-0.0633094675479218,9.504793963703635
20.445047853909745,-0.7311840779796471,-0.06670793451099458,9.539090342145643
20.45441553004053,-0.9610512247462079,-0.09114144412515328,9.521372188187874
20.464678140725944,-1.0435495804822477,-0.06814379534714297,9.539430764479718
20.47403191368817,-1.3056427051524107,-0.1082881732509978,9.510667473303478
20.48431859659633,-1.786421038515692,-0.07576383582665355,9.503890253209372
20.49364975274779,-2.134533176165586,-0.09430053033397874,9.524801740443069
20.503941133396452,-2.197868264205995,-0.08061414650966385,9.556674455284409
20.513201963713176,-2.315251795245741,-0.09008330212837835,9.512419047946365
20.523510626859352,-2.322166766873834,-0.11293839390644665,9.544527245865012
20.532984381110037,-1.7985008300812089,-0.07089303650459247,9.562775861684477
20.54427125560824,-1.3767272403437445,-0.07301405795635099,9.5008720341334
20.553315097658114,-1.328465232320976,-0.1032735781632621,9.478090981758525
20.563887133613193,-1.3144483101556241,-0.07209005334508724,9.545561897737695
20.572889188195987,-1.3254211716741602,-0.08464336444385882,9.539298642378244
20.583635345308043,-1.3976932858524616,-0.09098147883267414,9.553960132741611
20.593616881473434,-1.068952636247446,-0.08367692286158523,9.517708341086083
20.605101001042122,-0.6808033163374759,-0.05175535347165554,9.53651269338587
20.61409805955579,-0.5793722638215366,-0.07437729222059403,9.495449015839984
20.62474605885847,-0.39109566256182654,-0.05340384776412134,9.524276076801625
20.63374099039183,-0.19320493542001058,-0.09762656867209574,9.572563189295732
20.644369622050135,0.019467938755290907,-0.05421219848884928,9.501055359006454
20.653271708582338,0.17734908802012575,-0.05611338080485621,9.510248256832575
20.663995467567823,0.38071824510792335,-0.0744749592926474,9.527852596233028
20.6728809557984,0.6669083688732435,-0.041702337858261364,9.525571762829854
20.68364402503377,0.9548798677367818,-0.06523538853855491,9.516729132355186
20.69248709442921,1.0167921240466362,-0.04338542523084348,9.514783017727245
20.703277264488793,1.1198328565719498,-0.052892530938066076,9.509701563212388
20.71201084548764,1.4105755056707827,-0.04478389124077664,9.52274733589668
20.722913444129336,1.7252080382888735,-0.06311679818132936,9.5167930814886
20.731571397090377,2.135185969906787,-0.03454487554963566,9.50533688811816
20.742839680359886,2.482736643092502,-0.015000865142648992,9.508279816692854
20.7523303850799,2.476728613260058,-0.03880280150221677,9.497432395491963
20.763082624799274,2.4080433991744163,-0.04636776186436868,9.492400022569532
20.771896779714105,2.281422558769829,-0.01713394151572275,9.534215862255373
20.782717174199746,2.2723019564667593,-0.039896586713521455,9.530894921089873
20.79217672763678,2.2123833945400335,-0.04546697559194474,9.508264133679214
20.80350194999602,1.8777757013214538,-0.02666951651113653,9.506268971365754
20.811939744420275,1.6315542322953631,-0.04792637453795204,9.532685243769304
20.823209114355308,1.5865086093702536,-0.034299673865357275,9.51600457050596
20.832652777007926,1.5453361359983566,-0.04951380108978407,9.54276147932598
20.843639979529375,1.4130727688535873,-0.05096370089814854,9.446522156130952
20.852144209315185,1.0975699936003651,-0.05112097678404993,9.534088214579073
20.86338114061306,0.8447576770985806,-0.05259463666854334,9.530120945425178
20.872765075983786,0.6979815563323822,-0.05254345207396792,9.533118892473095
20.88388313490723,0.638537855202767,-0.05168024592284829,9.522432648043617
20.892355379869027,0.48579532405361553,-0.05411143554353704,9.525964571841453
20.903473628111005,0.19002469914943815,-0.057782244074394695,9.505601140112077
20.911992093477973,0.005516804882789195,-0.03761045152302646,9.512836204940314
20.923175686634558,-0.2782988535829372,-0.101292799663594,9.541148719866017
20.931562152859797,-0.4242544219930594,-0.06644651478707897,9.504273444912434
20.942777059688908,-0.6545821026435901,-0.05916737202724082,9.539389543877816
20.952053246597554,-0.9488988269125308,-0.0915514133497979,9.521065216370229
20.963410455784587,-1.0081146775034064,-0.06313526182617195,9.525466181131385
20.97169939338473,-1.26184105410022,-0.09032132038744764,9.524167096784051
20.982936189346727,-1.7560886191957454,-0.08603416999943862,9.524629584611692
20.99129849943544,-2.151655644745765,-0.11024765829260486,9.524300845941726
21.00347496307612,-2.255115097383616,-0.11784390113828164,9.52891393386766
21.011893355617104,-2.35976680529757,-0.09720989149805584,9.53712475563183
21.02320511032621,-2.359543218446248,-0.12077571652097226,9.544820934834547
21.031776757919477,-1.7700323761430952,-0.1256403576503213,9.530297177628398
21.04403187860982,-1.3609095952127719,-0.0788150299246462,9.488739867418571
21.052004463719317,-1.3394336821662463,-0.0871480895485626,9.496282916921237
21.064305129041532,-1.3016284952861417,-0.0981078678404101,9.527239153473872
21.072740257905703,-1.2834720801879167,-0.08383163002135446,9.555494161472758
21.084148865826492,-1.390949530050528,-0.08719348100925711,9.538580960531425
21.092288470580467,-1.1348850847712466,-0.098257815669411,9.479696087262013
21.103715894910632,-0.735299034224856,-0.05300315681947569,9.553328240202337
21.111861387085476,-0.5705275146699708,-0.0851427515318456,9.515337456239791
21.123410172780318,-0.4044483963068322,-0.06353967613127623,9.500625088447718
21.131486648318603,-0.17584910326687297,-0.09971419525998637,9.57992518916205
21.143047971152527,0.0031614712014976084,-0.05265967485846046,9.486992352375735
21.151130280004967,0.18055485598594753,-0.06257463807775279,9.514818890895453
21.16363991374405,0.3493923222461366,-0.06404798826441867,9.537830767183792
21.17164761898148,0.6636945804701468,-0.05796622200894989,9.508938317206223
21.18327921981798,0.7870402278470794,-0.050436928372278915,9.5206124528967
21.191214502866462,1.1182678971027715,-0.0430253512480164,9.503531798615018
21.20292926583871,1.5792752020943428,-0.028865547129008375,9.528027184710195
21.210762537122847,1.3627581344990403,-0.05369615509813819,9.477839830499667
21.222510767278486,1.5949616189238711,-0.0570642168803274,9.54752038726292
21.2304751103844,2.065120830937343,-0.018937515131267225,9.527975352193613
21.24215775348896,2.365934919183485,-0.028053664499533646,9.509764454603937
21.25001861654224,2.436884564039233,-0.04602590434784534,9.49542814936335
21.26174158739323,2.4978647427094605,-0.037677143313923904,9.49335620823327
21.27039093255579,2.3230913892139164,-0.03410952955393267,9.526168422594532
21.28246176791629,2.369615936663759,-0.038583912421995895,9.525033786502718
21.29016465279704,2.2630526828012347,-0.04256410238686827,9.505577143816351
21.302069748909926,1.8936209393305203,-0.03138481515456781,9.495896551663096
21.309794424276507,1.6203600800529838,-0.04176860034807192,9.521396025590496
21.321698514936372,1.5368879370784791,-0.04746425596231603,9.53417704968084
21.329392070749737,1.5590616601063845,-0.0508768701763068,9.565597463148908
21.341215628391172,1.495856206513532,-0.06505113822931886,9.453602826786799
21.34959503708171,1.1838601965672526,-0.05919086045584795,9.526646163403491
21.36199568345235,0.8902779903552994,-0.04815087067684844,9.528334369670427
21.369467737040207,0.7435397811955274,-0.04973756945465826,9.499501320770628
21.3816921301382,0.6573061288748239,-0.06206365391059206,9.524405912807941
21.390104430417338,0.46878216157596303,-0.045961420963744525,9.506109406241304
21.402187699048476,0.20460203890268208,-0.06764633670351383,9.495791745112014
21.409733478260804,0.037569456650995675,-0.04531641081346919,9.51503981744821
21.421826300957907,-0.21671524290260166,-0.0764335888595932,9.547255269644511
21.42935149211018,-0.45564677298457323,-0.06806422014591866,9.481948186527156
21.441442443371766,-0.6653404844354006,-0.05320303089955765,9.547063427509503
21.448874760190304,-0.9559086874800944,-0.08726461888966772,9.534131420765387
21.46102827507796,-1.0879573992193874,-0.08142671966553741,9.516001656419258
21.46854164576593,-1.2165229094862908,-0.07616770787533002,9.53336266433436
21.480628550511923,-1.65370321292576,-0.08529548412690212,9.502351478743531
21.4884557715156,-2.088571053976216,-0.1145916380564455,9.5019364899515
21.50144561738897,-2.2078331316106334,-0.0730178062289262,9.55113763091488
21.508591989623035,-2.342881515244785,-0.09182007390053067,9.526215807874118
21.521281118413924,-2.4133453994582212,-0.12787227280660496,9.525990520421557
21.529369783134676,-1.8915738886401592,-0.10994426774631151,9.56218218991419
21.54146817203767,-1.4421364247533988,-0.06721905602484043,9.528198334394638
21.54918783297132,-1.3203137196878112,-0.0947011800561403,9.468059799689991
21.562214269341762,-1.2661872059331474,-0.0937356113594216,9.531780072617504
21.57014037302423,-1.2975630155712687,-0.0723107472953813,9.556297739097136
21.58293890511986,-1.3605205803138032,-0.09790593344177977,9.544527581088401
21.589826526261337,-1.1313882513419775,-0.07692158120330314,9.492881971893642
21.60333904315919,-0.7758712200859439,-0.06994055019937631,9.542309302879996
21.611721243264917,-0.5396849614007927,-0.055669722649036725,9.516531797485362
21.62402311897486,-0.381521911860985,-0.06516018678502927,9.503248542190082
21.63124778841532,-0.11945563313197177,-0.11057751002331156,9.586528968609544
21.64371065049169,0.049444517625103504,-0.035097720888782956,9.49937857711279
21.650863145334785,0.1131075925936623,-0.07087697329397188,9.514371467381984
21.66330035984105,0.3583242137070204,-0.0634700309463721,9.591750659759054
21.670371216559978,0.6970394991480822,-0.045787678427438,9.503751039279686
21.682897884252224,0.9455027725779394,-0.05668668634686084,9.512144829071728
21.689948475186274,1.2060647867165293,-0.04029589820730061,9.540618051639449
21.702600063533616,1.3242067964764235,-0.05294633201788045,9.498276524724167
21.70962869351716,1.5322706174524772,-0.049987409807290696,9.525116299499137
21.722182710546267,1.8267372630355474,-0.04993028877090675,9.54351615756119
21.72917947223299,2.181966120092905,-0.03878375839033277,9.51014763555428
21.741823837943794,2.3675392726241613,-0.01719994577583147,9.515582728489127
21.74959703156149,2.4337801591121995,-0.042539797269604475,9.49864503632014
21.762519279405094,2.4297171083238935,-0.03620345486883356,9.505388511248773
21.769233143776038,2.4053605980560078,-0.01342920914644536,9.510291454585811
21.782457397959668,2.4526369378789163,-0.0347808449103141,9.530768679489615
21.789868407528946,2.2124761568123072,-0.038772897172877754,9.49956866671008
21.803665110384422,1.8466443867105582,-0.05135943493236589,9.5166940294501
21.811759681116822,1.6176593082322557,-0.027528074116359432,9.532940343303808
21.824196473809913,1.4813599122019752,-0.0495861671168694,9.545656113729256
21.831198704562343,1.5027070316990068,-0.05885815595235227,9.507189428845974
21.844040139525593,1.3272676326281672,-0.05210803058095864,9.4638813250949
21.851860834673076,1.0345141423957527,-0.051425396606561195,9.551942577979487
21.864463672756955,0.8368563139473602,-0.06541895545219478,9.524952091485737
21.871434439174525,0.7236312150383801,-0.05897038185737732,9.522413484100698
21.884130802373814,0.5940130140408412,-0.055625504060332995,9.549755000253716
21.89100410992654,0.3619145818400849,-0.0586470602330114,9.50744244998273
21.903777916146375,0.08209644031142731,-0.057525819854197656,9.514223366557287
21.910543103006322,-0.08585666883397068,-0.05526029037235662,9.543186492480473
21.923806890482766,-0.29918402474007266,-0.120246481628255,9.50758546616127
21.931851116522086,-0.5207072557471387,-0.05149949064174433,9.506228763381642
21.945035486404986,-0.8133344725470637,-0.0716366682779043,9.544346492329575
21.95169878357093,-1.085193415933755,-0.09003453135222508,9.519181273882996
21.964608765583673,-1.15279189682815,-0.08307397690750538,9.533413870359045
21.97137539176886,-1.464482770362165,-0.07504901334847179,9.526617027305184
21.984232271550628,-1.8880271755650302,-0.08988093728571464,9.508913960495763
21.99089906235271,-2.174289506413486,-0.08718640956581651,9.513204983278564
22.003830636649592,-2.232782594724373,-0.0816141085150028,9.519178531164084
22.01145651313251,-2.506812100316771,-0.12035198340782048,9.511419069001736
22.024516911681037,-2.3506306529537193,-0.09778319646215061,9.566145533496837
22.031217461996306,-1.7081491854043518,-0.07777189406379544,9.54293406318076
22.044033221243584,-1.3435579176214973,-0.09319871235232528,9.491533050693002
22.051584651391472,-1.2300533835231144,-0.09037746691175982,9.51105964202506
22.064713742043683,-1.2145859153053675,-0.055898543057032846,9.550961976714717
22.071462140909347,-1.277323354214204,-0.08796251467803586,9.522030503977973
22.08549534764536,-1.2987141530168755,-0.10965235354429707,9.52734752214114
22.09202242109922,-1.0001330307202052,-0.05783297730012975,9.50481504753096
22.106175194977663,-0.6817021369967772,-0.061954742895607366,9.544954018010557
22.112384968183484,-0.4786885872382516,-0.08006486931796455,9.502133734287433
22.126323131869203,-0.30917702463166896,-0.07722780170327413,9.538805414135702
22.133198387509996,-0.08590479317614524,-0.05398006847455558,9.550322422861353
22.146189489117482,0.03896732890947918,-0.04895326343462911,9.477214047408182
22.15273427773551,0.22079773621974294,-0.06590342017152365,9.56150414869141
22.165681043804796,0.4550760441223262,-0.06098429835105016,9.520929014843624
22.172791933670506,0.744429173507243,-0.05916191435252859,9.504209593570836
22.18664261397377,1.0764994046810978,-0.04383241781559729,9.535225070361733
22.192739879707126,1.2705457706731476,-0.03842839297461196,9.512216677325634
22.20660684745492,1.3162290387089581,-0.050572349023298435,9.492598138906436
22.213569410769118,1.7249696260004093,-0.061051817527366416,9.548404765088469
22.226722034395728,2.120538078913587,-0.030085125923142886,9.518772861419981
22.234009369065998,2.3856624623815352,-0.0315760087568609,9.50889231476474
22.247373258523147,2.4168277031035488,-0.049027084505894124,9.489224528691954
22.25369548487591,2.429523660396281,-0.04326019681241743,9.503128590592082
22.267000640905966,2.3473002514032277,-0.04940974560474409,9.49779315412782
22.273303860816,2.4353696690641438,-0.03928005491462758,9.534610424425649
22.286544282398133,2.426655732140775,-0.04080199886700646,9.51466240369041
22.29286724719261,2.0384256369955485,-0.0496276004345174,9.483709918560184
22.306202912875914,1.744711443744317,-0.029741620130369975,9.547051085444362
22.312516522956514,1.5270151935600722,-0.045339369259922796,9.51018767593891
22.3257912207336,1.5179994461158346,-0.05470915662363649,9.53781500260449
22.332821263524124,1.4705754852955841,-0.04974017678688164,9.521616293385986
22.34653537205448,1.196813198546717,-0.045544754805833275,9.48016987196021
22.352680569896094,0.8961284818855124,-0.05979153109230392,9.572546057733229
22.36606463334686,0.7970917453447015,-0.04345859193421567,9.539326101194174
22.372879076225928,0.6221290615176173,-0.056768131886046826,9.541614446932684
22.386871034877558,0.44991086520758256,-0.07223545835459375,9.513937176012464
22.39277007563181,0.2674574777395674,-0.054396924827274276,9.53431072102456
22.406382136556648,0.10734826134777942,-0.04173354692611791,9.523892508526888
22.412364503077757,-0.1480215015012799,-0.06852629480452252,9.556598012099698
22.425999529687758,-0.38403205106916877,-0.07459711702929196,9.506829318547439
22.432019438811295,-0.603524503888275,-0.048596599490574544,9.536147270020397
22.44564229474691,-0.9124056702983928,-0.07046522273558253,9.531501026807945
22.451611320514086,-1.1227210474376088,-0.0915744284194634,9.514574868771643
22.465205254895707,-1.1287079222113203,-0.06287534556996395,9.55789673407181
22.47120212258474,-1.4956447029579882,-0.0863876949246458,9.496110966638556
22.484847247029393,-1.9371964745814962,-0.09933833375507237,9.537816534200868
22.490818539326124,-2.1540054353698466,-0.08919547636887638,9.540664002821295
22.504484872007467,-2.2159406215019057,-0.10927060143573493,9.537129896365045
22.510436279318323,-2.422093477645688,-0.10724093619753797,9.540551738574488
22.52407254229722,-2.3397118000824793,-0.1220295695707721,9.544909368630725
22.529989032142236,-1.6963704135575879,-0.05871570219675274,9.544938095674109
22.543700539471658,-1.3187578569760372,-0.09639212394631122,9.48712999696739
22.549612291359278,-1.2334146592465332,-0.08837757194640596,9.49636696512574
22.563330546860353,-1.2201169018460118,-0.05772390645157674,9.547476956293922
22.569247665455205,-1.292186603703009,-0.0776101635384399,9.532545186308976
22.582882131917987,-1.4008371803053599,-0.10827517519489184,9.547922340877674
22.589500026052495,-1.1010255827072986,-0.05085752602920284,9.521867970261795
22.60370557282608,-0.6816174579745489,-0.08043861398734511,9.545385815654353
22.609256893954377,-0.46773218504557157,-0.07006063360624355,9.494375748727327
22.62340221223178,-0.33501143771681197,-0.06298130602098208,9.53301967651299
22.629979442536715,-0.12949230744920426,-0.0803181642937661,9.569598670303307
22.643778313017407,0.037425528607050694,-0.033036854914011926,9.491500630026994
22.6495379939507,0.23653100843199568,-0.05465175062185217,9.567944625285207
22.663545642105188,0.49225215357724095,-0.06054870070182476,9.512136968409225
22.670152673376677,0.7404138236886185,-0.057408595828341215,9.511120898426093
22.684056604560915,1.0407437198062708,-0.045084181267384546,9.535322037893726
22.68977560525833,1.2493569429042954,-0.04971831087907515,9.524691032686617
22.703701653969294,1.4247057295376022,-0.04770718932683358,9.511590542343898
22.70938429947464,1.7089978534023271,-0.05069928783006047,9.52539741677292
22.723288808253464,1.9614421992290896,-0.03351556582820113,9.51943058951829
22.72893372000734,2.269778600935297,-0.003475740167239542,9.51256981303596
22.742934269698196,2.4213869131596906,-0.0442755573921867,9.497694626424032
22.748536743086706,2.4331409492238762,-0.04301046334241498,9.514502072794635
22.762596032863538,2.402722817495868,-0.03552405021534235,9.50282786807274
22.768100005626003,2.428596583490164,-0.03144994001305601,9.545729553439545
22.782525735716995,2.4990590911015564,-0.020202510359729607,9.512644340070391
22.78886439551134,2.1626098426120675,-0.042657835387811024,9.483909970614137
22.802760825798373,1.8044328497003788,-0.048962577079855595,9.525258688955768
22.80837727786383,1.6029843259081487,-0.043032430549188004,9.544822860137911
22.822354933574207,1.4444049487613735,-0.05319415534600163,9.521134502027852
22.82797039265043,1.4697678532441505,-0.05046188042460932,9.539230274907549
22.842005165896325,1.385665429818107,-0.06137814821780267,9.455249795682374
22.847579379018207,1.1138492251402006,-0.06057080684833579,9.549526953016029
22.8616505953417,0.8347607444928138,-0.053322574145122474,9.509218651672523
22.86715517198119,0.6649089016281362,-0.05753642982464432,9.541345844336151
22.88121980286325,0.5513142018394843,-0.052988163381497276,9.556389697251374
22.886754323623844,0.36441358052067563,-0.07898067979053618,9.516338657613298
22.90086056884665,0.16153579815986316,-0.04838318728721265,9.527182927880387
22.906372228175652,-0.028320222098800203,-0.0487973580248461,9.522784032026308
22.92049719159705,-0.3222211898261547,-0.12917536111971628,9.515109823590128
22.92599049101636,-0.4745077778661129,-0.0647036272492398,9.52494406590397
22.940063432155743,-0.7613681486235928,-0.06574715466939787,9.543040231678324
22.94557006907325,-1.0524047143392674,-0.10563828072742532,9.509558206790366
22.95960724636132,-1.0644180226335473,-0.06504533955363101,9.544282386226648
22.965615328553557,-1.3625532642473355,-0.09135117305842198,9.478663592532122
22.980442190151244,-1.8789351711984996,-0.09056373197846225,9.50891209476117
22.98568843292907,-2.0961829199745914,-0.08213874420559164,9.561204735909135
23.000013505988658,-2.2139373727090006,-0.09079212552025026,9.52164632795601
23.005304105778503,-2.3580359040852015,-0.11158560546882,9.552378829925578
23.019591707584766,-2.4730421757883545,-0.11471756212733486,9.520205625376526
23.024907646852903,-1.9403512233889875,-0.09035150619741994,9.551311546347913
23.03915555953904,-1.4251374360849793,-0.07033763387894591,9.524534758092694
23.044465356304954,-1.1726649926337753,-0.08903872850665777,9.51691498519061
23.05887015791988,-1.2319935589692113,-0.07157642064230262,9.528170559028664
23.064134830807646,-1.2520866659901924,-0.10212445448789356,9.534332939766266
23.078470194423463,-1.4065886027390044,-0.0723355451515724,9.549708649525643
23.0837113847745,-1.3002939086955374,-0.10444897518644694,9.531026353421423
23.098007764549042,-0.9056845433211423,-0.059253305471266615,9.52058178622036
23.103993434466535,-0.5637297390365945,-0.05145225126527968,9.548893742826538
23.11876031536555,-0.4067419323448597,-0.06378580921945762,9.472420484995071
23.123876629030942,-0.1976098455948347,-0.09717420746132142,9.563305105876498
23.1382935436867,-0.06457830167154675,-0.047235414278355814,9.53200044922227
23.144081414467358,0.1561103438928587,-0.0584533861746437,9.488543774617106
23.1590777311174,0.33700010745599446,-0.07364929105356609,9.544310369762583
23.164015362638622,0.6487354005255161,-0.047363675092897135,9.5171727152573
23.17865733814297,0.8285403384148698,-0.05727103725278362,9.510726916128835
23.183655145143288,1.1497973099351808,-0.047010663891922655,9.541152560477654
23.198220088582655,1.236839312821649,-0.036515756059409994,9.50625296800285
23.203225256427302,1.5549129899829077,-0.05277069869693617,9.551259526759784
23.217847287238882,1.4362335053116635,-0.05039664489929551,9.50669216984075
23.2228732850244,1.9582585187136623,-0.052511462972343444,9.546840974906118
23.23838331109458,2.9749699432272556,-0.02061612640223299,9.515241813038813
23.243466845029356,2.5190817971342785,-0.05572289711738583,9.459744322054275
23.25808340957245,2.3173667108649543,-0.051817243767227655,9.512803988492
23.26307557035635,2.269789994548524,-0.026578746636897386,9.548076180614833
23.27770585752048,2.4547431456684308,-0.03637671435455525,9.576229782282457
23.28261995022963,2.370257195272549,-0.05198780442688475,9.47796408077605
23.297308993385887,1.9839211199039657,-0.04008611147718713,9.513246593997694
23.302240262056436,1.6773057094755641,-0.042393472649301246,9.533878012051973
23.316945480118118,1.5224305485662093,-0.050113457647389906,9.554748827592222
23.321858281482893,1.4479510646599856,-0.05836027452109777,9.552850760564711
23.336587281751004,1.3972746744764801,-0.07080180170514913,9.479099198818956
23.34141136694477,1.1694146384817015,-0.043175451096996234,9.526282319420922
23.356087413662816,0.8959815940630187,-0.06543617780169703,9.536376365851444
23.36109220133335,0.8594567200299764,-0.04236729475276323,9.54169380287322
23.375701542893975,0.697973869639897,-0.052804646486985504,9.53434805447591
23.381309870802372,0.44029955444879315,-0.07361319523663196,9.511818008758738
23.396469479845486,0.18061949519779896,-0.07608686502565942,9.52802906995191
23.401313053045293,0.07243181289470065,-0.034758461991186,9.537126625760896
23.417082991151474,-0.18469116255089896,-0.09642224241941953,9.547824466755861
23.421789167485628,-0.42254431055696334,-0.0920660301974445,9.499646906667707
23.436704418926947,-0.6628987221553907,-0.04250322420681661,9.553993438180143
23.441428223134565,-0.951771010597359,-0.0872935953985589,9.505008748160112
23.45625691063355,-1.1042652402242328,-0.07585189441547865,9.51766398977077
23.460947564523153,-1.1772975577652522,-0.09134071591298129,9.516278702595022
23.475929082242782,-1.5688483566776583,-0.07695301420496012,9.522261440182186
23.480604624017175,-1.9919544416376964,-0.10704353865412798,9.514819799125586
23.496454404633393,-2.2968342947272316,-0.10062332888190809,9.521360055722885
23.50120519658357,-2.3869590851761235,-0.11038028883599338,9.554725033479562
23.516161406470196,-2.4352342776240583,-0.09174059458488723,9.515438923575308
23.52080808136658,-2.1675030326726072,-0.1090014183727071,9.557162972767346
23.53580567277425,-1.5469614656159296,-0.06885364221337362,9.552331322500555
23.540373279665825,-1.2262289559873658,-0.09182432045183628,9.48722210100488
23.55537971908899,-1.2121894267470796,-0.09250983704923788,9.541762440802183
23.559980075241516,-1.3047219207176084,-0.08283967620184919,9.523592939953936
23.575021603193935,-1.3769509505332687,-0.07537344063753813,9.565643431528274
23.57959527802805,-1.369192319836451,-0.08846809362923452,9.538832592080457
23.594663088532144,-1.0627734877124373,-0.08376631241535275,9.50837017825451
23.599199597840176,-0.6145231600504167,-0.05826267740208855,9.548176008029104
23.614233672051803,-0.4185916645881866,-0.05398305588518473,9.494428615363455
23.618771850294557,-0.24747774628062927,-0.09975365887151716,9.523319930401492
23.633872706313667,-0.07599813486153396,-0.059586460199554235,9.564303955032184
23.638390556508146,0.04685024811734224,-0.04044729077192779,9.474077198437824
23.65350075381257,0.22117878508258126,-0.0887771610370375,9.562774186621985
23.657980389382622,0.530309812305367,-0.056221509219675656,9.505458352433697
23.673127453058303,0.7573689344531906,-0.0632775695117862,9.5227934694135
23.677544452865703,0.987904389568701,-0.03820963730867903,9.499397862819642
23.69274127772388,1.205008200366032,-0.06463516412449231,9.535817049266786
23.69716698542543,1.3940686413660495,-0.02500125687718464,9.497188343780564
23.712375420750856,1.6051077133350935,-0.08285079381117055,9.5218756881054
23.71678925926758,1.9509282702336852,-0.0258662726733293,9.5291003054553
23.731987658774347,2.2499166866787275,-0.024704975255150866,9.528472727502676
23.736335376105018,2.4356835104529355,-0.04648735495967627,9.506029618217703
23.751592067377562,2.4362811179701556,-0.05219406395219424,9.498140808306008
23.75596708579638,2.4001716535783513,-0.03073886439106495,9.518260934695071
23.7711676801124,2.4011347619780277,-0.012727523497181047,9.54063028098401
23.7755217581392,2.498352307646899,-0.04425000948742121,9.523552947452693
23.790896995055213,2.238714463529434,-0.030340834585954896,9.520521403311726
23.795122580794658,1.8516499547961545,-0.04798267422334036,9.501096933755138
23.810458425628852,1.612129299661824,-0.038815111945203984,9.541399344207973
23.814706227233682,1.4780433474064192,-0.03951628816189359,9.546524181837427
23.830092291072646,1.490467555746801,-0.06918622288106677,9.532020978142162
23.834368597913386,1.4031721311907854,-0.05108330518958991,9.454340936176056
23.84969022081925,1.102223755386094,-0.04971269190021132,9.555974446709806
23.854641961440546,0.8720061673303918,-0.055972817772011386,9.511222946233744
23.870414218776506,0.7451562365687089,-0.059072790924002715,9.567511361326744
23.874417281750326,0.5948287607418771,-0.046824331182302954,9.511339512306169
23.890086353692716,0.33029673414377536,-0.0669589245760005,9.516023022270785
23.895181345033443,0.12285695165217983,-0.05732689969400108,9.509610831823018
23.910548486285844,-0.09754930754639558,-0.03795076531311284,9.553216668897228
23.914799421698476,-0.31166467009666454,-0.11638601894893195,9.5067953650675
23.93126087067973,-0.5072604968401035,-0.06330283524486005,9.49642452863169
23.93521767780723,-0.7574782046561072,-0.051222350006417824,9.558717196682874
23.950867183559314,-1.106522454322891,-0.09550868409808606,9.453809927112758
23.954804132588485,-1.097647141354471,-0.07005427452852798,9.407049778093953
23.970948055595617,-1.3934302786097696,-0.09258786688293245,9.355939417663057
23.975591220261425,-1.9190536686533155,-0.08338416821006131,9.05606480123122
23.991022862273315,-2.1530330090423444,-0.09867185508541275,9.721468183148769
23.99513973268483,-2.2276682182753564,-0.0804446373984703,9.24328397321017
24.010656347587307,-2.4202560312390125,-0.14344531074098096,9.72753893346978
24.014665624215073,-2.1781118187117294,-0.11513661185595886,10.715509665504754
24.03028338675175,-1.8067015122708663,-0.07425331004389535,9.40456996348172
24.034289073384,-1.2943397580595681,-0.0720040475952286,9.614608988401582
24.049934516269794,-1.1698505467031,-0.07564320290580025,9.410507367955372
24.05388902409209,-1.19798446692122,-0.09133169076381903,9.578746673506421
24.06959965012574,-1.28605299402516,-0.06920020092071305,9.508550992274046
24.07344558527577,-1.4456851728480222,-0.10902407974660348,9.563156260525194
24.089941100434515,-1.2680959750612024,-0.11593911008952656,9.491152512987592
24.09415831487075,-0.792285118351616,-0.05926937069280562,9.543745760948738
24.109689805537236,-0.4730204044478081,-0.07372376584548672,9.495314091153233
24.113712201225567,-0.34043465154719227,-0.04543957030735156,9.502934661443954
24.129368308878494,-0.2427145788721547,-0.09891978383375635,9.542320357252375
24.13331249807177,-0.0571632160490311,-0.04965867578491357,9.551342209770944
24.14901626929975,0.08248413410299206,-0.05401073006084595,9.497605382136504
24.152924310675132,0.31868625021486546,-0.07765805228506267,9.556327231109394
24.16862776222906,0.6086646000071739,-0.045595522805820396,9.49912840461909
24.172462953869456,0.8366002446229125,-0.06232061577367188,9.512721112113503
24.188250337841545,1.1014287654201333,-0.04578603878027341,9.525194236777297
24.19207895286074,1.2586276629673812,-0.05044733425683139,9.521039726728118
24.207892209884626,1.4272631940398703,-0.048482872297827634,9.507468719585885
24.21169295485205,1.7761319517890428,-0.054284051807068766,9.548742442544867
24.22753134526083,1.9631321670536717,-0.034805016927427254,9.493816351068546
24.231248494812437,2.285746698392996,-0.03848335049581733,9.529064127057914
24.247115074573948,2.739464383016559,-0.04373837038510682,9.500627949059556
24.250856715439735,2.439993412600813,-0.05408247185255856,9.485727966977898
24.266761070394832,2.2360437981869263,-0.03524531412367977,9.504768086475522
24.2704490533813,2.333733789173347,-0.05233905192853052,9.528350136143834
24.28638387675138,2.4464209073943106,-0.040778198997419836,9.559259129246005
24.29004099234486,2.023685112917762,-0.05262734910476001,9.463217775257492
24.30597365241473,1.7807054183282807,-0.0437754486019722,9.553634004878578
24.309627103068557,1.559827526742297,-0.045221072369879226,9.516816922288236
24.325593886513236,1.504565990777371,-0.05076587542092821,9.549944185883183
24.329267332378315,1.4510105407939613,-0.05523449315632923,9.488977686863405
24.34525073537625,1.2743754056952064,-0.052149807090737986,9.485021784835274
24.348867547117262,0.9598869998629596,-0.040274662614373354,9.56206491468791
24.36482325037871,0.8280453382854487,-0.05714399678758606,9.502893090862566
24.368438668201637,0.7053559134289284,-0.0499874388074116,9.555210682310777
24.384462212823433,0.5589100627211466,-0.06154171115363827,9.498847848426426
24.388061531751703,0.32046686645657,-0.05639279573655241,9.533485659789912
24.404081279065352,0.16671256146929836,-0.0587276487154816,9.505935147972382
24.407783246699065,-0.0782808148582407,-0.054510484264904714,9.543740569348063
24.424751638698584,-0.334173043924999,-0.09754535620834175,9.52602489370097
24.428232357554943,-0.502939706212509,-0.0413542015514088,9.522292056924655
24.444360886202396,-0.8016150520511728,-0.06489501043882552,9.533171400683957
24.44777010492423,-1.0678144944096883,-0.071269411956064,9.527758533901611
24.46402604395253,-1.135372122091203,-0.07090473177964317,9.531040604010343
24.46834287372953,-1.4305759596851217,-0.07476702804910683,9.525549000154303
24.48456760966247,-1.8528720681079582,-0.09295946367627932,9.508577948688052
24.48797762170765,-2.122407163611546,-0.09183388645025692,9.543020704664222
24.504236175657002,-2.278672047885946,-0.11524957726558682,9.537328565769931
24.507598519582142,-2.415438668903006,-0.1199993871366446,9.539612044525704
24.5238813326357,-2.2962853378470838,-0.09596512240834754,9.530466566010354
24.527186742602467,-1.6979577257920893,-0.08982952556468983,9.549669948514527
24.543422931651957,-1.2712280691180713,-0.06023474635954511,9.508560538674438
24.546764779594394,-1.1937196830187924,-0.09595995223594027,9.509460550909921
24.56311464430956,-1.2005876929473054,-0.07858493253213297,9.532719138172103
24.56633015835221,-1.318968172097714,-0.09097166032718898,9.540659735980999
24.582991632184818,-1.3936502417242305,-0.09618974255814496,9.552650230873677
24.587071035063808,-1.0946068069728523,-0.06643274020436148,9.527675598437607
24.603291495508998,-0.7346848562651954,-0.06722807152160717,9.513525934942365
24.606640378125714,-0.5157874295714863,-0.07474877724090334,9.53376560550071
24.622912414762133,-0.3329630841828566,-0.054350973434208825,9.481368484991055
24.62614285462756,-0.15579083158094836,-0.11094177309191768,9.557056786901441
24.642541900050606,-0.015412440553197662,-0.015802432763403235,9.504325074066466
24.64578845637584,0.09274622733367026,-0.08178169888529459,9.527778788222113
24.662185139759174,0.38529626030542985,-0.055346356906855874,9.544764332599387
24.665403291572712,0.6204275330197586,-0.058878067704354664,9.504268058235114
24.681795268197284,0.8709045655330868,-0.05424535119490308,9.517199623986636
24.68494368551711,1.1310347902328395,-0.048923922318765904,9.521917702317753
24.70141592169608,1.262962229880436,-0.03747995952614641,9.520055054690532
24.704559985375028,1.4320484935231403,-0.04483036738625392,9.526803415176483
24.721057087195344,1.7020624301259548,-0.053546747221088487,9.523448468417104
24.724174841085116,2.132899902175927,-0.004197466026577274,9.524765215618215
24.740696435031406,2.4144190032226556,-0.017587415775457523,9.514911895608227
24.74373149796978,2.4263958650163158,-0.053054171949357055,9.492522746295647
24.760278210850213,2.43201939670332,-0.03609601253816453,9.50654437861191
24.763341402104512,2.3531946948112124,-0.03832935614054693,9.499915866146212
24.77992034017033,2.4244434708637868,-0.027194913402944908,9.521091107244782
24.782953935303286,2.266232988739716,-0.04855691181865121,9.503098179812554
24.79956544393184,1.9500927043285494,-0.04243136158260396,9.497931683774782
24.802551081534116,1.6940385404071083,-0.05144190866754943,9.520119519088183
24.819134155649106,1.5279620851341182,-0.03385842576335079,9.529937804531444
24.822127794755694,1.488279157192831,-0.05120376141939754,9.542626563513338
24.838778809449245,1.4564457694600332,-0.05998916941088552,9.463140497335358
24.841741544572802,1.1480739095042005,-0.04430103231644027,9.514657876588105
24.858420158656646,0.9360776581984439,-0.049674341954208064,9.535649527759238
24.861347184393082,0.8597339928953278,-0.044860639826871995,9.540330040937995
24.877989104619438,0.7148958976724464,-0.05719485991976646,9.51972442858193
24.880922958256637,0.5327124468060366,-0.05010553865609958,9.51619783278637
24.89761939266544,0.301195816075171,-0.05681533173994472,9.524497870407433
24.90056017643296,0.10406856368998399,-0.04289536042096027,9.49823643853027
24.917202362806464,-0.11028479653499898,-0.05766715918778731,9.537311755158774
24.92071794541947,-0.33587700222463096,-0.10024436135078936,9.471732532758155
24.93800531110564,-0.5333998056883215,-0.04417887559561224,9.528310200615651
24.9406663518704,-0.8774462562830948,-0.07023616122732866,9.538905451433415
24.957560539142946,-1.1354972395961656,-0.1027647481229038,9.500636308555768
24.960230033789315,-1.1549534637220897,-0.06601040362142084,9.541354110216405
24.977166036580417,-1.3406001678005541,-0.08380164465207646,9.529849155906453
24.979855020935997,-1.8365657379894211,-0.0806340447447035,9.490371012801093
24.99679950077529,-2.1305158736682817,-0.08833479080807456,9.52939093569605
24.99947803211774,-2.255311068679102,-0.07654074092058258,9.525858683681806
25.016416013819754,-2.4662136573662075,-0.10759892752559864,9.534822079851649
25.01898822828211,-2.311629654271192,-0.08588448497119125,9.553453017688273
25.03603673102945,-1.729692450282188,-0.10208608558073237,9.54951086941661
25.038631583420184,-1.2998011433223293,-0.07698887937345379,9.490372144761128
25.055676133038645,-1.206745570755148,-0.09202689925244448,9.501684158161936
25.058243997347553,-1.1594068782003446,-0.0697880800071625,9.537109397961549
25.075322902516948,-1.2957267082117243,-0.06765868532032912,9.52787503649135
25.07780697900522,-1.351218767976626,-0.10621359308732166,9.548772546580834
25.094901893465405,-1.037221505424817,-0.06450432457106137,9.524882967553918
25.09740248256407,-0.7282258535051163,-0.07865325598704297,9.52380243828039
25.114557346872516,-0.5143954903021994,-0.058787922364875816,9.51700360220631
25.116998026643586,-0.36406999592481104,-0.06744434080632143,9.499103243312335
25.134227148703822,-0.16025843653110652,-0.08210616933969733,9.584496253219415
25.136525661135696,-0.04982852604073636,-0.048371980060762924,9.501976568150656
25.153968867739007,0.05045523860950485,-0.0596162357997886,9.529284892838186
25.157162450126375,0.3533110631718935,-0.06073346783489368,9.541269707069743
25.174999224764672,0.7035350421822716,-0.04274717225674687,9.520888349338263
25.177925517646347,0.9026290105316428,-0.05629381646983575,9.50793613366636
25.194994121841667,1.2084212878828986,-0.04718774864275768,9.532578629299879
25.197317881031427,1.2692663611787554,-0.042163197513458095,9.509121921321766
25.215161714287824,1.4718606890293382,-0.05777165668738978,9.515008606854568
25.219191474292057,1.825504390402719,-0.041383854491516756,9.540719290537215
25.23711595051754,2.225206991456776,-0.02454254202531849,9.497094847092256
25.23969604701524,2.4251016971283046,-0.04635171852152768,9.493131157058993
25.256823879607428,2.4623324057102955,-0.04378720883388769,9.511526509006504
25.25929044630263,2.4218379861135255,-0.026527466810282424,9.510362449555414
25.276414181649944,2.406189603569117,-0.014845170526984856,9.529618017361878
25.278852905371632,2.3494991672403103,-0.055429877301927735,9.521950646943063
25.296006628927373,2.1072628023186337,-0.03313031432335108,9.502126838287833
25.298759254097266,1.7931728029123166,-0.043333744479946056,9.510160192252243
25.31680618621037,1.5929212062156863,-0.03961940377780653,9.51581846463508
25.31895117978701,1.5048040559718134,-0.04827161066036459,9.530366254333414
25.336393201807354,1.4853315369075935,-0.05194535905659603,9.498171464164479
25.33858704723693,1.3176662168736708,-0.06249609687717761,9.472999721235194
25.35601272154669,1.0230767470365034,-0.045993909060447924,9.56619394193988
25.358136825911423,0.8635213921183367,-0.04928085491604497,9.498910485995012
25.37560710593954,0.786547851183628,-0.05013975752510468,9.547986160424113
25.377757362543683,0.6166832012862987,-0.0533564533049402,9.4985669521567
25.39523497598947,0.40254114924084855,-0.04887277162861388,9.542813929562046
25.397343512537077,0.17808233168094625,-0.06461454339844226,9.49236017081349
25.414892614033292,0.0489047964412836,-0.044660977361892534,9.546490034633784
25.416909541248373,-0.2633289208533961,-0.09046305859964106,9.526401294865934
25.43448217366764,-0.44801250665527664,-0.06977356505942457,9.502717618470747
25.436523701141372,-0.6858685203214044,-0.05254055079450853,9.546269682351012
25.454124177434643,-1.0042029715732865,-0.06940050943711691,9.528940592198575
25.45613535411443,-1.143027622688202,-0.07316793661571734,9.525073104881047
25.473771026627155,-1.1882831999238574,-0.0753582518948219,9.543849972696131
25.47572075862752,-1.6020521289551861,-0.08753321856608641,9.505282717514724
25.493335482244703,-2.0089902272374793,-0.09808072167318085,9.511460731380627
25.49527337350001,-2.2058730658609296,-0.06332821599541229,9.549038022981582
25.512998165444063,-2.25601782626877,-0.09944438117921546,9.539167413125105
25.514906914598598,-2.464307848537941,-0.09634778663650888,9.545581659613916
25.53264309901874,-2.079881976152155,-0.11477721160095197,9.446037269150462
25.534498834422017,-1.47013320606469,-0.05755122839223028,9.54924988057035
25.55221495101612,-1.287795168589909,-0.10041118361021378,9.482104671821823
25.554074854499568,-1.2161411218793692,-0.09569928945712597,9.534450488188561
25.571863122033417,-1.2770025289068636,-0.07823144945198547,9.514071533881884
25.573684847233046,-1.3308491735568777,-0.07175419139784965,9.552415494594925
25.591508506473353,-1.237390189952459,-0.09039923608787226,9.513359321357193
25.59329598786152,-0.9142196665857885,-0.06921796004244304,9.522118776402634
25.61111065760678,-0.6361914664691742,-0.05304876714876687,9.51790893318122
25.612836282392234,-0.45075463459994636,-0.06741133154798647,9.508061755012058
25.630745075597375,-0.22925911149674888,-0.08481248888358756,9.539316362799031
25.632445921694202,-0.05646766702859715,-0.05667591506932237,9.553843647226076
25.65039275923278,-0.014534823997518863,-0.07204465758614606,9.450798401070449
25.65205325359033,0.18781838242654503,-0.06521429252218551,9.541404963140963
25.67003865370688,0.47252415041546697,-0.04916831952026882,9.534718603761066
25.67158427242456,0.7339263584224149,-0.055860203536549635,9.507664527618644
25.6896585514337,1.0787463899666145,-0.0412179654943006,9.513788353748378
25.691132685281374,1.2449197515778625,-0.052760836909518036,9.504430896117974
25.709800915363648,1.3568633623843045,-0.039897118192367374,9.517438062999535
25.711904875610806,1.5856573174379394,-0.06045967698313122,9.52349361384017
25.729870819322187,1.8613745703584594,-0.048647899899987225,9.5076220382543
25.73240204880089,2.2756326717793596,-0.019350460069251008,9.50781192532862
25.750470634641253,2.43959229649011,-0.020598813403675937,9.513589275465101
25.752038431160276,2.429268483825916,-0.041582890957613465,9.494260740629878
25.770117029854877,2.397720919389924,-0.027041291929999774,9.530207451344845
25.771645977823162,2.349078963041452,-0.03936924299767647,9.523485743823949
25.789711492649065,2.297305238379375,-0.04508238713279419,9.536233786895894
25.791190522608858,2.0440484711106186,-0.04197946706926282,9.499998743008994
25.80935189672131,1.7579814212184122,-0.041926800880412216,9.511375999550188
25.81080219204304,1.5810697204022863,-0.034933974700376014,9.536163949959976
25.828995778848192,1.5487998204960516,-0.06712173578421707,9.540201851630398
25.83041428014076,1.4959990923504243,-0.06695758278902068,9.52243514921954
25.848594542539146,1.2463669458016924,-0.05216914657694177,9.455221346915634
25.84995835866548,0.9942637739599817,-0.052450401012056315,9.552631958070476
25.868226442608496,0.9020896485397598,-0.05392122197471735,9.511576696264779
25.869573421585407,0.7887840306002215,-0.06075445387070043,9.538527742109617
25.887866143489813,0.6122164940517826,-0.04767376910874978,9.513145472072381
25.8891925577386,0.3865937180345985,-0.0644843277084942,9.518172192128027
25.9074921097246,0.1728518346604161,-0.055210077519108315,9.511191794058957
25.90875297210569,-0.02411507836667881,-0.046540850902437744,9.529451594680967
25.927054615209443,-0.2710487451608816,-0.08745459296597873,9.520891651277523
25.928489180358557,-0.4642134061298355,-0.06537257323973787,9.51014716409128
25.94765684327103,-0.726879735676315,-0.04953506148965414,9.534216432332345
25.9494521240509,-1.091291898194905,-0.0980522617378584,9.508469535169903
25.96847159083206,-1.1573174924259912,-0.075145501845994,9.521239134433932
25.969432266556417,-1.2720705647493233,-0.06877910538569192,9.514637481530427
25.988054398512624,-1.7077704281807546,-0.07753571814119065,9.51757606556426
25.98906995208707,-2.0887382808611648,-0.10751779474284118,9.51876317622014
26.00766687741929,-2.222496695372142,-0.0766589599019902,9.542849607453293
26.00864988139602,-2.4463755240490883,-0.11913307397388183,9.518163844590582
26.02727998120379,-2.3568618846353524,-0.10733156514081452,9.550226071233652
26.029161583139974,-1.6890339601917737,-0.06328717194908913,9.544490283924155
26.04884159430777,-1.3117362255980347,-0.09837475265500327,9.48492202395427
26.049848674927915,-1.2763682202527378,-0.08512135492084642,9.52155507046618
26.06846601094905,-1.2291670287663934,-0.06732800079913191,9.531367958135595
26.069450761747184,-1.3205069898080046,-0.10779153236250011,9.546328310493232
26.088114991949226,-1.3187552123281854,-0.08461075794313418,9.536279022774425
26.08908397131074,-1.0395235450631002,-0.061050074074260705,9.501685411707054
26.10768868201308,-0.7239790524078721,-0.07939630006548498,9.52896387310462
26.109596853635928,-0.5628148171891563,-0.07069360014633379,9.539714074927684
26.12956822778959,-0.35179913430088816,-0.0602109334003627,9.510576265927174
26.130063175841705,-0.14053019736795233,-0.10173114151063531,9.55353874067656
26.14929540700303,0.011008329333648589,-0.030632959391262742,9.49845868969025
26.150785113664273,0.16937546446712265,-0.06300283249172209,9.518206914281961
26.169679881343555,0.40893649823331746,-0.06068041275112721,9.52487031674052
26.170377709160288,0.6400436011999484,-0.05507340884976529,9.49102931908549
26.18933162822718,0.9731482576713529,-0.04716419264631627,9.54058400479857
26.189987072887128,1.222444333181371,-0.04867619324117942,9.502234362019944
26.208946754625998,1.3586317468531641,-0.03665461680106526,9.513366002130212
26.209523805759133,1.5278957443310555,-0.05302264947961441,9.514413332760059
26.22856607735223,1.8161079680632999,-0.052936787963321956,9.531048233846539
26.22910180063555,2.1631067645117943,-0.010567845285035642,9.529682533608234
26.248229559072012,2.393274426808281,-0.043210753656309185,9.49727360995404
26.248733598277568,2.350761337648973,-0.04601171189078309,9.498082233026524
26.267872252756387,2.4533771284816135,-0.04318872024959072,9.530700073971435
26.26830208389035,2.4949732527915165,-0.011469745373329298,9.523006909054264
26.288383121128238,2.2985652073769174,-0.04422437113587866,9.527978277832545
26.288884042933212,2.034592580775507,-0.042817410120270294,9.508296563429022
26.30803705432307,1.7627016427484996,-0.047467368166259384,9.535352369211708
26.30873657811996,1.5971124878231544,-0.03418917098354572,9.531426123988286
26.329157016670884,1.5308513536933122,-0.02758022790735715,9.55380755569156
26.33011549874945,1.5540003111335055,-0.053363007758501294,9.491855341811007
26.35013715724911,1.2859098649497618,-0.05637829260175392,9.485122975187252
26.350781261450216,1.0056516452254005,-0.04800200640720194,9.56476797767238
26.36990485095718,0.8736507660633742,-0.04588394112628608,9.521360898383174
26.37048602953935,0.7647823702573359,-0.05221706808472462,9.536800388361787
26.390712812011547,0.5800668892572568,-0.0650186698917048,9.517903073543422
26.39078476618156,0.32344478075764643,-0.056929029846005626,9.5335685854639
26.410267616173623,0.10522873940903302,-0.05575201944752084,9.49158901585325
26.410361917158955,-0.06474376289917687,-0.04176895615507206,9.531542078586146
26.430040813953113,-0.27859555575506034,-0.10291921691198601,9.522873113779909
26.431017526110352,-0.49196499661919174,-0.06578478022665359,9.494288573370019
26.45049630763672,-0.7780264181904252,-0.05831633933704133,9.52760214366294
26.45060749842515,-1.1030245128416944,-0.08637344038179223,9.53648275210181
26.470159692753278,-1.2020138376817924,-0.08567871779439164,9.53419929195267
26.47017653845135,-1.3240263136634323,-0.07053044114471664,9.532318774104464
26.48974038189824,-1.8301889245192977,-0.09528843691028382,9.483334945167371
26.489754353411275,-2.0745913961229516,-0.08876311090120492,9.546959111922677
26.509398241580353,-2.2232324424697265,-0.0946823994475787,9.526174019182983
26.509354914134516,-2.4034529710574666,-0.11686177468964136,9.53105047553832
26.529051955156188,-2.350010768837702,-0.08938733206776163,9.539762481339455
26.52895530535339,-1.7708276324745078,-0.10548848354728513,9.56249207395173
26.548653176329708,-1.352806767968199,-0.07071301518841955,9.497825962499851
26.548492136079016,-1.279447815363051,-0.11918145268685981,9.504246679756049
26.56830437967805,-1.202196144596976,-0.05836962418897604,9.521176063174556
26.56808924143514,-1.2967311762495426,-0.07907606362989544,9.530128121937919
26.58797029297477,-1.375358767257449,-0.0922049311345136,9.541208712028718
26.587662762189858,-1.1292716541965178,-0.08131344969682512,9.524951711699796
26.608372008513637,-0.7358708458725701,-0.06562406402199779,9.500199423044915
26.60834861997124,-0.5298718597670242,-0.05362007289187885,9.521351886636223
26.62819135975519,-0.40163460352706115,-0.08061138589590089,9.50512107033248
26.627876320138462,-0.2060037133115257,-0.1059741450003091,9.55987202352066
26.64778702378662,-0.0579195275388427,-0.02426730780271381,9.503147860994915
26.647461252063444,0.06492186389982045,-0.08078196561632499,9.526182244713375
26.667441489195827,0.3462154999413846,-0.0535887874291891,9.544128213203177
26.667068147316343,0.6630441042518175,-0.05369343799911404,9.527712321579791
26.687059559213676,0.9097701180526451,-0.0586177208064178,9.500469552417968
26.686650393661523,1.1851465740263991,-0.05291558493498039,9.515976730912788
26.706612909777462,1.2793699648412162,-0.04862771402986549,9.500668747278567
26.706772605111798,1.444195229782067,-0.05687817724552244,9.510789807940938
26.72741672999575,1.7461694878144618,-0.05795750276694304,9.527730559348884
26.726689319747972,2.1313534749154375,-0.03738920658434344,9.52124416259501
26.747014775342976,2.373837727264543,-0.03507751590353161,9.491689395354665
26.74635126543891,2.4366850645381386,-0.05330038210534119,9.517726261157158
26.766649115273083,2.438942199810164,-0.0412428290261485,9.501672914803843
26.76598501496325,2.3676467718265806,-0.013100828907611,9.517693271797626
26.786218025943924,2.3621592844779107,-0.033253492398228245,9.509504513351803
26.785892254201595,2.1541974830076835,-0.04822374828909685,9.509623933399256
26.807087371107215,1.837903320902495,-0.04187252541509274,9.512718854927634
26.805979993383783,1.6472750260611488,-0.05028372460036738,9.534045028776143
26.826630113229996,1.5314568848430583,-0.03957615084430438,9.52268721761342
26.825554184539868,1.5168418230426146,-0.05249887965137961,9.519601766940104
26.84653723393877,1.3901828324700074,-0.056819906178112056,9.444340318438472
26.846309043786498,1.0919980921146615,-0.0635287826699065,9.54708261650162
26.86679851198066,0.9726533685358831,-0.042750889431953445,9.512745109705183
26.865871319537593,0.8130693368995575,-0.053139491612205415,9.516157453494463
26.88644374438227,0.6696030043723605,-0.05260922816433313,9.512748600712454
26.88561922837571,0.4343890271878882,-0.05002612974103667,9.517307569248892
26.907812431553147,0.21626254258146904,-0.058124680421165136,9.49922647909609
26.90769078565083,-0.03281504281615756,-0.042724790378531746,9.534632758334238
26.928903885486726,-0.263227394269397,-0.10498820801936254,9.51247954211635
26.92923166962137,-0.4482680608783166,-0.07710844652185149,9.505013960485858
26.950510048889132,-0.7399626291853797,-0.0424624057342447,9.53372119830451
26.94908071680064,-1.0696239233112346,-0.07574657775623521,9.5067596170639
26.97001876449099,-1.1671914621594408,-0.0880902297653792,9.52958921004803
26.969132221259898,-1.3181745273273795,-0.0897650578087815,9.539294073971243
26.991442692457124,-1.8292423604213783,-0.1014416034227487,9.502122408286246
26.991271093657115,-2.1314600902986536,-0.11324057971991736,9.540980062567286
27.01231489626908,-2.244559423176076,-0.08345183321866873,9.54518298134587
27.010865327270892,-2.4566229752419364,-0.11873850725239088,9.515757055960158
27.032023499030498,-2.23770291947815,-0.09364991174936477,9.56006332029073
27.031324440284056,-1.5881375120779706,-0.06010378414260821,9.546556852049006
27.05271837433274,-1.3033796153094184,-0.09212098966678392,9.48654285226615
27.050873466011208,-1.2575922437677378,-0.09663286806299738,9.509437996808527
27.073547506687532,-1.2594623779151413,-0.062096527281192096,9.530811754418698
27.072695584679025,-1.3778752696856535,-0.10011908857861766,9.546308810786822
27.093877900499898,-1.216404421619099,-0.07150707705365594,9.52580931355547
27.092154822531988,-0.8325242588489296,-0.06456775432761455,9.522458592308165
27.11380720229787,-0.6257590121488861,-0.04785910969266087,9.53262503208769
27.11285171098291,-0.5040854958461222,-0.06425119146988875,9.523300044086781
27.13411367295238,-0.262164004514864,-0.0823044884330802,9.528266939353477
27.13230149637821,-0.08517211115399445,-0.07365575707051551,9.525254934458479
27.154493160167647,0.018472798383465525,-0.03139325877019326,9.506294159744519
27.152996623514433,0.28258486920402515,-0.07834263911920109,9.551793812457937
27.17434016893895,0.5519093889224571,-0.04910104740323527,9.520023705616213
27.172548983692458,0.7662787976051384,-0.061436079485286434,9.503218010928281
27.194011747049085,1.1121603784214575,-0.04218367248261427,9.518407843003194
27.19215281981346,1.27529770330175,-0.05501818303513094,9.5066828500233
27.213622922086437,1.3534802058976816,-0.04436338497734678,9.501380789074338
27.212285083908295,1.6720943475684804,-0.06476063171035977,9.549017234170115
27.23444338869922,1.9954497836592626,-0.008160111663315504,9.518401697984206
27.232173058089217,2.2941000138381034,-0.015864557426974235,9.515015369420125
27.25400568139377,2.424070121597182,-0.03575949684292361,9.510622334838741
27.251760473406474,2.475428975037407,-0.04513725636644163,9.520564985814264
27.273637918495787,2.400105641920546,-0.031160921344829996,9.51246566545928
27.271415424220933,2.2771435545413903,-0.04149042272294999,9.4870246268003
27.294156864743883,2.2579399284178785,-0.04146579464625576,9.522041452831706
27.292343759691082,2.047522623505432,-0.04680881209344315,9.50261109343094
27.315014598858216,1.7946577982180083,-0.045353712959917726,9.518497372030986
27.312426629563177,1.5951827969260604,-0.03623621885841878,9.529996985184766
27.334646411150768,1.5330175500372734,-0.06406601427766513,9.541448721870179
27.33204117181226,1.4432104142707844,-0.062442273617346944,9.472312460315536
27.354291616936706,1.152011694451993,-0.04826337692807038,9.526277911884932
27.352379986496018,0.9258956267314842,-0.05754204674377855,9.51163473499574
27.374974522435544,0.859951963688736,-0.04473163007538665,9.518471808033562
27.372153727042274,0.6898531573328344,-0.06557485366170888,9.529331471697073
27.394569427811806,0.4877640092829565,-0.06439048013589639,9.512240730411055
27.391702050319292,0.26244723354302524,-0.05648103558559281,9.549115312112718
27.414243050771137,0.046879766559094184,-0.04913377344013052,9.50237687770062
27.411252527511724,-0.12331353637503051,-0.05867449603877655,9.569608932429334
27.433920924753355,-0.3480626884962745,-0.12640702426255668,9.501954744007667
27.430843966862977,-0.5144789279098628,-0.04079231384857511,9.548035514816096
27.453558769443724,-0.869067110953538,-0.08028568525576865,9.534183838925301
27.45022353812201,-1.1308925057066503,-0.0825455117971799,9.527878620925332
27.473733320191574,-1.193592193207443,-0.06407494757894291,9.55110850367698
27.471085066851437,-1.4797481095889435,-0.10219455319801543,9.528127563657913
27.49375719205639,-1.9142028954255383,-0.10213577770070649,9.501864312640302
27.49060442101165,-2.1505184590641644,-0.09046819085369817,9.566623755202542
27.513457991825316,-2.2935502693408494,-0.12088302626137197,9.519483655639249
27.510171523302187,-2.4438869017725717,-0.11722742158987377,9.530522655114849
27.533139736945945,-2.177952612970446,-0.09365008958273256,9.562278336316027
27.52968620661527,-1.5606081771872895,-0.08092259625810501,9.519927447759029
27.55276177736155,-1.2880671294109591,-0.07573931508870331,9.504861715195496
27.5492706450446,-1.2808232781766096,-0.09049611368705862,9.54261326629259
27.573312853767604,-1.3359832109224148,-0.09680866116099764,9.498530334985553
27.56984586279598,-1.3709108953883284,-0.1087722261468046,9.577639854487403
27.59307613061767,-1.2754405199821797,-0.09693644139416366,9.50351623173536
27.589402789667925,-0.8838124209227683,-0.07969943649174818,9.547209135868117
27.612766398825002,-0.6036012453642828,-0.04864173629967449,9.511070667268
27.60895818472998,-0.4581444879731808,-0.06547479157470405,9.518736967835784
27.63237772823842,-0.28859341675528255,-0.06755661601930651,9.543632660499256
27.628491185859552,-0.08018539420923348,-0.07488251557326847,9.530859791951896
27.65206536084317,0.007227554995168548,-0.04061263694397579,9.502016811123433
27.64806151102482,0.21831662682038397,-0.06838888105844693,9.553128933203023
27.671743060954316,0.41850035262036256,-0.05616619334100924,9.531228691695969
27.66758286950027,0.6288501984813603,-0.05331105639306117,9.52920408186984
27.691408559250352,0.8726873957124209,-0.05485996937239068,9.500853228363576
27.687065446494792,1.2353836990397395,-0.042549313993462165,9.567000283331065
27.71168406221006,1.3974029629683875,-0.03174934029264198,9.392247947400028
27.70777080806029,1.5834995367385187,-0.06380407695998719,9.450898688838677
27.73175829100476,1.897255961414674,-0.06671627668416645,9.532113732171933
27.72830680189389,2.241058962848998,-0.019593610124405476,9.579972315990965
27.75231351979306,2.3591148174756813,-0.03738964074582189,9.257747945576194
27.747867258335262,2.4672176105025363,-0.05108930648380855,9.28520880822728
27.772010653447104,2.486727312027673,-0.01965713266947293,9.543569326854414
27.767428833960114,2.424536473131104,-0.04845615527420539,9.518184190739628
27.79170493617731,2.388061347799233,-0.02901086735047159,9.5409014042187
27.78696877595329,2.049640770485907,-0.0527241031540875,9.54490688266136
27.811321617404978,1.813658976640393,-0.04460608913797811,9.546722237358756
27.80650591190444,1.6339176337705312,-0.04393536115548221,9.549217692261031
27.831014182177732,1.5408022770386645,-0.04873410360017529,9.576941893303028
27.826069806270652,1.5216584979840702,-0.05536248794324954,9.428698024791505
27.85070748376753,1.2229073672918462,-0.05864243885349755,9.532278607569985
27.845618319669406,0.951933012448609,-0.040263684115839506,9.541390183209824
27.870323784438458,0.8855815174734666,-0.03827215333594388,9.555164612785045
27.865148203366378,0.7905379254682444,-0.06763990863641017,9.519598309079305
27.890015705366242,0.5498177454670626,-0.04498194328952252,9.526608951888935
27.88471533257228,0.25569423955409826,-0.07094452259139246,9.521918222423098
27.90970015098842,-0.025032070832483298,-0.05924149357421387,9.546351287307376
27.904262331418956,-0.2344409705077559,-0.05340285277373622,9.500490850667235
27.929324029866805,-0.5320314584376153,-0.11770138757181607,9.522989868570109
27.923926449008807,-0.7593540090268993,-0.07374343301260512,9.528258811476315
27.950707946825776,-1.040251985523413,-0.04066487324873989,9.549039898095357
27.946043949907562,-1.1919843557083816,-0.09539031873744098,9.55303388547858
27.97177583882559,-1.3316963584869934,-0.0892922751353816,9.520505040600748
27.965875397791905,-1.7533139180710275,-0.10186259249480377,9.506738715800097
27.991374401017264,-2.0020904049131,-0.08421952711525328,9.541196681334887
27.985963333902085,-2.0884474912042315,-0.10121936991554097,9.520442180039943
28.012212735117203,-2.2025546484427205,-0.10841560715973518,9.52598895807323
28.005836198006904,-2.1879055894960167,-0.1035102190663013,9.546554648890899
28.03177909831882,-1.6599817257728753,-0.08850060299229313,9.55608820254811
28.025415667810403,-1.1332262761138014,-0.10721087569696612,9.526575330828008
28.051489124596596,-0.8960606900571959,-0.07222484391167985,9.510842027243056
28.044977946552006,-0.9892743607309793,-0.0857985523278562,9.516636588196834
28.07117967904511,-1.0330692072024061,-0.05902268054564323,9.550170231659122
28.06455084367343,-1.0026916077905121,-0.11260693387548718,9.532873347204859
28.090779528769936,-0.7894701428419996,-0.06349594710712565,9.532583475994892
28.08436299716296,-0.47258453962682984,-0.05333156344015264,9.51885797982801
28.11252975636561,-0.1940413605888887,-0.04523023649341754,9.525608787885353
28.10554510968187,-0.10600158808148816,-0.08938425278966006,9.532756337674261
28.132299952972854,0.051944672399941196,-0.08184808231778269,9.529566975374964
28.125038939064027,0.20284119244208199,-0.041769613031466146,9.524596265060913
28.1519466977952,0.3242037077425221,-0.07478076539565193,9.529387690129237
28.144566387278026,0.5026561030125438,-0.0462930259369765,9.5346959811335
28.17167563627466,0.7589627505354235,-0.06131472501013086,9.533201512480696
28.16407153871386,0.9513407619005204,-0.053701608319428024,9.513674636316477
28.19155960563372,1.0742820040239267,-0.04639800537351864,9.507242155263823
28.184692453527315,1.2785422263815316,-0.04546944467893442,9.524447760729318
28.212028368140448,1.505988484371702,-0.04855231928905926,9.502137976730763
28.20419032416165,1.6601083772701317,-0.04839847865657509,9.456482000635415
28.23169801867782,1.6070016666520393,-0.04683733958949431,9.502951790975978
28.223665610113663,1.5920401034230083,-0.04970055595161109,9.498020441200538
28.251419945679654,1.5623367903637253,-0.05079465347967916,9.49776976710905
28.243255353155295,1.6280564893168963,-0.036884265110289985,9.55772376803589
28.272160924886943,1.6302207955778019,-0.05420410013136538,9.497142094371961
28.263605386982878,1.726824092908501,-0.05239375738349186,9.576406773341724
28.292351772080096,1.4872076736950792,-0.06426009746019867,9.553345571457381
28.284303572355388,1.0341610473519425,-0.05725706701686392,9.523692994682033
28.312507164197694,1.0094929568627988,-0.05047057015228381,9.504189140356706
28.303766082916592,0.9362481203480095,-0.04809616300120762,9.553814644741616
28.33226288569917,0.8294408985778975,-0.05892648198703796,9.48709585601319
28.323223937756918,0.6904430674277813,-0.07041337859336186,9.526614591678536
28.351936307965072,0.578157423670747,-0.047862457035939755,9.543638574492684
28.342747129211972,0.4241883149764465,-0.056655058764578665,9.545778848916354
28.371635671677417,0.2928010856125862,-0.051542713524418374,9.41469976213581
28.36252573774942,0.12936206132867212,-0.06885462794587396,9.660245581108477
28.39253308614668,-0.007883844797311254,-0.06129750199564941,9.504661115256182
28.382634533203817,-0.11681068221371049,-0.054652985618828615,9.52529749986006
28.412247657652212,-0.267847465492804,-0.07204361317486227,9.526052890388335
28.40210743685838,-0.3181857490510915,-0.06417749730812303,9.537567517862596
28.432120138787795,-0.4420142735678391,-0.059066155158413174,9.54879558486642
28.422745660252563,-0.5957194666283125,-0.06557483829222255,9.51223567482941
28.452594117244907,-0.6544879349357904,-0.07565808600761374,9.527634585818005
28.44213640718367,-0.6716065630933831,-0.06136482580456443,9.5431944108122
28.472352586448515,-0.7330753038765695,-0.07091715407404452,9.500429706287884
28.46162578419347,-0.7743538911236123,-0.05917138781808962,9.519210599265875
28.492118118203532,-0.8028121891790385,-0.061676655653266826,9.533807138307756
28.48111686145154,-1.026950441326286,-0.09187156111730445,9.521134697057889
28.511879060911813,-0.8866990359218373,-0.08353133358211803,9.54569130821558
28.500545110727508,-0.6014765034057441,-0.061173992475030164,9.543672026587874
28.531574913907015,-0.34097961223730483,-0.08681628841068169,9.519023484497007
28.519929784060075,-0.18089603348949937,-0.055092205141806204,9.508843337689498
28.551400706886177,-0.22415020892467405,-0.07062657255139254,9.493747521110675
28.539477625441165,-0.2632825002821327,-0.05909170753301029,9.539921728907816
28.571170648749575,-0.2845439149026513,-0.08200934907941126,9.537066065310565
28.558898652120472,-0.1732265360650606,-0.0821183305349045,9.555618630973331
28.590892079089528,-0.03790150831789107,-0.04951127360098696,9.505065997528842
28.578363779924,0.0785840440034287,-0.0667633643667549,9.531228812931815
28.610679882841772,0.17545159224698617,-0.03734927726897772,9.523624693189886
28.597834207984185,0.2019971090612392,-0.05648265675142689,9.515758975567984
28.630456545575225,0.2789157488313484,-0.04785759713906823,9.546889425794577
28.618065972646985,0.38696708779498024,-0.05087254587328033,9.529790350114224
28.651327806335317,0.4896810828871645,-0.050805503770891464,9.52035922714859
28.63765939277027,0.5838631631352768,-0.0500761592690771,9.538082435406679
28.67106598813078,0.6091117671527093,-0.04113590525640699,9.495987268749113
28.65694935333551,0.6005785381084259,-0.05572609492371877,9.540038219000069
28.690865599746697,0.6606793518006694,-0.04742688634529239,9.523473189382464
28.67648194885807,0.7121592358799713,-0.06451681564736698,9.529155331201403
28.71068919461792,0.7180531312803314,-0.049405902029265814,9.527687891404373
28.695911579996466,0.7320824654372982,-0.05176695713699732,9.499408390223216
28.73048631930798,0.7076989776207468,-0.04626934921458555,9.498661438514805
28.715255344640074,0.6826466300073414,-0.051028100194455236,9.496018260786958
28.750313256117778,0.643315641622679,-0.050345443866905426,9.461205004565896
28.734664288339275,0.625846077646778,-0.06684366622255807,9.623701493365514
28.77016699411313,0.5836973318544172,-0.04387716555578376,9.465489045449349
28.75405455652446,0.4190803311534579,-0.078404693526077,9.64143630858595
28.789996189996806,0.33228263031385236,-0.05561441433300069,9.71905219702554
28.77339769973652,0.35192533357112166,-0.05922547088027982,9.4790738660618
28.809837684874182,0.37069437405329625,-0.04541416781877591,9.548323517919101
28.79276375403257,0.18937183535930907,-0.07254174417837014,9.517341172377167
28.82973537114015,0.015553327626342707,-0.06990749676830336,9.521200653500703
28.81209435497025,-0.12954308903126877,-0.06326158889136552,9.425924167789942
28.849920372017316,-0.17715114075372024,-0.07876169053612884,9.565124773651938
28.832909874257673,-0.3101754610204561,-0.08185356011348298,9.548600243252958
28.871525432651385,-0.17961565134988527,-0.06811780928588751,9.531318976218083
28.852765142031295,-0.05913487438101639,-0.045848633270347335,9.547470611621383
28.891406008446822,0.008322202067759932,-0.06491462472044567,9.49471272577574
28.8721128819827,0.10750370737037336,-0.04685440634049919,9.472218734480789
28.911264144514774,0.1326533381770606,-0.07433530130217014,9.506906424319988
28.891554885696344,0.18835461682392132,-0.05190459960297649,9.513457772997764
28.93310623808212,0.17690041114883745,-0.06450616428675886,9.533261882408715
28.91266981231767,0.16101579764973112,-0.06767132076826123,9.508063995004145
28.953217452064393,0.15318196332922077,-0.07139386740474507,9.544706162017457
28.931854301252283,0.1886632883100769,-0.07649394349374916,9.534893646858968
28.973168489235583,0.21848748740891763,-0.04661951247441046,9.519609683648339
28.951094037193965,0.17261058769254714,-0.07674876027944516,9.484350899512467
28.99483602967606,0.14966994140361875,-0.04781945236736779,9.530754872278788
28.972440817773364,0.1820611839333376,-0.054041528455490095,9.501512298493555
29.015102291889246,0.19823993686578775,-0.04550216733756275,9.538751728871036
28.991520970599126,0.18164666576941516,-0.07634017009935669,9.499644435610913
29.035202498343594,0.19041207198549956,-0.04721376747752068,9.549710803192482
29.01071524274805,0.17325742870495084,-0.061787787392603634,9.507590903712863
29.055291547713644,0.18638562287200894,-0.05117785536156568,9.556602815697081
29.029864980026456,0.16720913552531935,-0.0648405183001556,9.533075197688992
29.07535260651761,0.16050496524855762,-0.08269566573759374,9.546808446352943
29.048923424739105,0.1753418734233777,-0.04834558378473619,9.535149077253406
29.095505144888154,0.1660668683694285,-0.06795175019333757,9.518753554102457
29.0678726043868,0.16404669244445202,-0.06104448760856031,9.517172283619352
29.116925413885003,0.18559873166070717,-0.05019945721349646,9.535579797776835
29.08922463944948,0.17949394842562663,-0.056534612574840805,9.529280165302668
