Time (s),Acceleration x (m/s^2),Acceleration y (m/s^2),Acceleration z (m/s^2)
2.5759587677046576,0.09271114664039806,-0.19287182245300058,9.583350069507713
-0.5302009955141926,0.0946458475531258,-0.1863769036182933,9.599738162623394
0.5211639301210237,0.06684773745902671,-0.17617441389572439,9.589384062002896
-0.092327259075084,0.09650310849725315,-0.20284119948963772,9.572891896658412
0.3612698529116734,0.09989108467406725,-0.19030243290896304,9.565712741923655
0.027016663581552865,0.09413855473224195,-0.17696227745263746,9.586143460772318
0.3174298552606505,0.07039178738275292,-0.1760937354181511,9.589960251117683
0.09056604272310595,0.0863082965368859,-0.1825651270096662,9.588298363970678
0.3048204261113049,0.09698266497766815,-0.16986465218457883,9.595051130351312
0.13487212248319452,0.10017033940176585,-0.17673873462873335,9.602195182124955
0.30493222297923134,0.0731161381605495,-0.18086603689380928,9.591551012679002
0.17019941519692441,0.11196654062396705,-0.20029705535173567,9.573973404710166
0.31154799367894886,0.09993280596417296,-0.17499465020194005,9.580344686523402
0.20075861798349998,0.09666938723589387,-0.17921954299500453,9.578216108367947
0.3218712981226019,0.09628566488805568,-0.19291425776624052,9.59483610044729
0.22840539071535979,0.10750408033535507,-0.20300191231512693,9.585111447493
0.3344730575725305,0.0901232364763543,-0.17875823806948735,9.581841939914913
0.2540741757897,0.11080933661816061,-0.20802680710431398,9.560542386371475
0.34989322709774723,0.08963471893523,-0.1799476871634127,9.5740635248891
0.28163171805624093,0.09134566227889242,-0.18339296300344654,9.583404983061037
0.3668050063881259,0.0864720314042477,-0.17318784872401555,9.585785004824533
0.3051673824390229,0.09954356375602764,-0.217511158966351,9.562658896500334
0.3836444565034522,0.1074077084039054,-0.19766311081446317,9.573291112786173
0.3291656073498677,0.10380472740530078,-0.19324319373448406,9.582457670099263
0.40038989855507473,0.1000312987870647,-0.1888260944948175,9.564741835713784
0.3524451931268743,0.10020386272856516,-0.18345704035968596,9.58324780196622
0.4196935147141019,0.10802090933262125,-0.1957923781515298,9.58001035842234
0.3751055856304891,0.10307289699299056,-0.20099908791925178,9.570063404953094
0.43728398055533246,0.08901837433668497,-0.19574306779242281,9.572887240551653
0.397945380586513,0.08797171373120607,-0.1743229010550154,9.593492492028137
0.45561865834415327,0.10903741060760824,-0.19864029323405263,9.567802178766906
0.4191612367366515,0.08374126233120903,-0.19703678325328905,9.580563669072372
0.4739287160041952,0.09800439252700963,-0.20116596355474384,9.570945209608299
0.4415096403873847,0.10736073898923684,-0.19479979016834084,9.576166106174027
0.49293886519438346,0.1012564586421367,-0.2052238646582556,9.559051797925882
0.46249394264340926,0.1048181581507363,-0.21192586423461676,9.562961938084667
0.5112252864226495,0.08388821860767988,-0.18662540191794122,9.590355178194395
0.48328241133207084,0.07898766673413143,-0.19767004408260044,9.574093470001678
0.5297025625167715,0.086717818345271,-0.21207895882578942,9.567342543577547
0.5040053351675419,0.11265909639487529,-0.2042571582548763,9.577689091672163
0.548294574140033,0.083715155845049,-0.17161912112811398,9.585721381919399
0.5246210223703481,0.08352478842820472,-0.20518332825342953,9.568005090956227
0.5669283617497951,0.10391406404879312,-0.18673307875232092,9.580015616018105
0.545087204214148,0.10753852721617457,-0.1917780242837354,9.565268333301463
0.5856973727203186,0.08701688651795855,-0.17700636163588407,9.580855703588949
0.5655411424994811,0.09106465160813192,-0.19867125081829135,9.575471441579392
0.6045421418556087,0.11830146602825141,-0.19384114748211714,9.555947420343163
0.5859258870621603,0.101478067050029,-0.20021898360007642,9.56215912203709
0.6233975343603873,0.11281214388630276,-0.1952591951432094,9.556960582029253
0.6061940985555917,0.11206655690884867,-0.19990922713617215,9.574515433541192
0.6423181043094411,0.11354434261982914,-0.20119542993373435,9.559106466583573
0.6271689438153498,0.11604842293218232,-0.2000472713880765,9.572205244204442
0.6624418965650456,0.09764378073776217,-0.19235341956939014,9.590133483631318
0.6475831526253956,0.08778791644334352,-0.19452301589513826,9.576972257038005
0.6814652070046068,0.11612381427079936,-0.19670719107962598,9.557594634831364
0.667776681745565,0.09940395551917075,-0.19416931952331856,9.560524588556818
0.7005599139026647,0.0774801265423981,-0.19430261314818534,9.582031680563567
0.6878880197529211,0.0903985291628383,-0.18927326885427,9.567899985319455
0.7196164420054892,0.10959492516706962,-0.18152932519787396,9.567455820111954
0.7079456706915175,0.0995190825880694,-0.1891345210356382,9.5706477470993
0.7386861722944635,0.10104288541542196,-0.20423749338327288,9.581812819120207
0.7285664793701283,0.08829303697439944,-0.19502400057714936,9.56842846051124
0.7591092904409106,0.10394374901738716,-0.21127654369408308,9.56427001138451
0.7489467745016547,0.11157682916068144,-0.1969492723292582,9.581905911126672
0.7786567973678052,0.10012109272507685,-0.1817792155913633,9.583428912278784
0.770580424980495,0.0946631703178331,-0.1764925162650067,9.586964668444939
0.7995244519036122,0.07965828908688592,-0.17965522294265993,9.597403004802544
0.7918703884127424,0.08425197630179512,-0.16912602402255258,9.574172353020142
0.8197341296952059,0.10396953295221673,-0.20189286954290814,9.559408888767765
0.8119277073862791,0.10747717786620926,-0.19961711209680277,9.563351942308634
0.838992492627327,0.11515316370296676,-0.18612359766226327,9.56773757336823
0.8318615554894101,0.08998927753694348,-0.175660593184285,9.580443496646376
0.8583140277255416,0.0935364630822183,-0.19504821470188577,9.561846015719295
0.8517412870454055,0.10576342230379264,-0.2016365003203452,9.58149984573748
0.8784165492549157,0.10964244100119626,-0.19862557380587156,9.573257854377369
0.8727805079875299,0.11474301283143228,-0.19071690801879113,9.562984439815418
0.8978617668591902,0.08618264739044545,-0.20186920463381972,9.567501792398618
0.8926052772149663,0.08910812748905221,-0.2226081728612103,9.566832976003212
0.9172532140065749,0.10316005542797503,-0.19407804469411818,9.568191881546442
0.9124263279042648,0.09411317462547876,-0.18723591171953097,9.57730408621675
0.9367866820109594,0.0936262261091501,-0.205551868428315,9.574005996900997
0.933413232669008,0.09303320365589715,-0.19676448716852815,9.580686789266363
0.9569335294549304,0.10131972577745359,-0.18358347621426302,9.561573462289509
0.9532561643228223,0.11717666663694441,-0.1837487935738449,9.570652602143646
0.9763356410837607,0.09720258015917846,-0.19003602447113002,9.580659531323843
0.9730462493508855,0.08350103231637687,-0.199270984538213,9.58246820750848
0.9956821236937485,0.11906528691871653,-0.19768009859355276,9.561054739513612
0.992958843050525,0.08458598640524846,-0.18979111294551293,9.556702202088923
1.0160824122570764,0.10458768638589615,-0.19456951456917584,9.576517617479793
1.0136838721466424,0.09170806720120021,-0.21109518965971033,9.560921340077227
1.0355711182382632,0.12273630829741038,-0.20882738332154563,9.55209723048727
1.0344384446490509,0.0833641383306019,-0.2040736016983493,9.559987218692255
1.0559541550940588,0.11116459448809234,-0.20148336387949012,9.56634916342542
1.054311386823488,0.09548683917940574,-0.18902393522816494,9.556882416877947
1.0753759741630053,0.09178231634829395,-0.213326850811917,9.542706638004901
1.074954663249685,0.09519446688900295,-0.19623968706077283,9.56360233253727
1.0958816960851738,0.09996977772866941,-0.1926226412114876,9.561747473973133
1.0948411538985257,0.1115678129302765,-0.2033276137131363,9.565304620910236
1.1161268763365486,0.12466617882185037,-0.21339313477107383,9.554284946997312
1.115675332643036,0.10498039983963531,-0.19750256195923446,9.561844596323043
1.136475684950489,0.1283996679761062,-0.20766883522921747,9.579766178674083
1.1364886169072668,0.09229540571200551,-0.18731168863291256,9.564414668987073
1.1561217988702353,0.10790368188443548,-0.19761560475561882,9.56428965269237
1.1562240204128902,0.10761794197297835,-0.19994976720404792,9.567694107692143
1.1755443922390003,0.09291134136074246,-0.18092376760461085,9.594966124823802
1.1759823947043642,0.0874303980584327,-0.19680880242933185,9.567917513169478
1.1950350647485533,0.10021187970980522,-0.2009325529852383,9.559609147849981
1.1957531757693718,0.11407017763283127,-0.19746347800431296,9.553148082047725
1.2145251072642582,0.11314060552491385,-0.2098661609601306,9.554417847269226
1.2155157212812093,0.10032440204381457,-0.21513003352125684,9.564588484475959
1.2339513670495574,0.09756949740086622,-0.20738745042607962,9.556298176321576
1.2352340531082957,0.10721259074804515,-0.19831569569993004,9.563543659248886
1.253438213426299,0.09359425753648339,-0.2134652683893358,9.560984970741364
1.2550153696652204,0.12241958516753508,-0.20216723145304805,9.578630451418496
1.2728837276979943,0.09194203145082905,-0.18185011138309334,9.590806053934724
1.2752121910304222,0.10492269698367235,-0.18760742712716488,9.562932487903845
1.2935714689759985,0.1116603817645604,-0.19159935273117992,9.583813719256156
1.2953748753687853,0.07942563060224643,-0.2005329913003842,9.565755286045912
1.3130209351978448,0.10717882477658873,-0.20287077753414318,9.568515753538097
1.3150274221751546,0.1061288723415394,-0.1938924962532295,9.557977375225818
1.3337631855715941,0.10860146191732456,-0.21946692504631313,9.566460483033534
1.337014047797471,0.12201871978318983,-0.20280793680629844,9.553257665624372
1.3538900734854216,0.10377122913885337,-0.2043246508091454,9.551234428856077
1.3566634238399469,0.09838331718014448,-0.20354138749009795,9.573073522226043
1.3733645458060453,0.10110164235491212,-0.2014493390047031,9.56709726621097
1.376355335251384,0.10914031380570137,-0.196535661832822,9.564834064436951
1.392890707836388,0.09096928537138378,-0.18920163677088728,9.565932627857913
1.396099984377877,0.12124739080027924,-0.22585289856894722,9.561245794989784
1.4123805029408685,0.11837143465982326,-0.20136115213959596,9.567061343556055
1.4165173900861976,0.10700801936022383,-0.19859096218233727,9.572422946229127
1.4330260292818138,0.10547862655359838,-0.19746138452178733,9.574993754075706
1.4364576551323878,0.09096455278815886,-0.1999873374530008,9.567315578636997
1.4524794383006006,0.1062665546193696,-0.20658081350242768,9.569653212553629
1.4561275672142313,0.09885753841401881,-0.1851680362577985,9.562324963688393
1.4719914311825475,0.09597986257142663,-0.21144940804002244,9.55643532487992
1.4758576116318662,0.10294046711213393,-0.2112022647404885,9.56378390285164
1.491525897863664,0.10717193407953489,-0.20729246320193673,9.563485300191623
1.4955754215327466,0.10781178362705822,-0.1953901400163345,9.551488750309895
1.5110026307709283,0.08441025939414971,-0.20356941080131216,9.548819927050012
1.5152416268323126,0.1280686013124684,-0.21371254463472303,9.569618490874587
1.5305375709003601,0.10317073950245026,-0.18905069665967394,9.56882684040409
1.5349981509501365,0.09601363527733543,-0.18593991137293964,9.551673825617787
1.5510210904313002,0.11195636333785476,-0.18887253363099163,9.566499123502805
1.555631689495749,0.08411475769952759,-0.1933664312141548,9.563455558926307
1.5705775537645201,0.11020511564287115,-0.18858319510061225,9.5509959684294
1.5753497098216918,0.09332083823383414,-0.18312066124864843,9.558151196174867
1.5901688586248273,0.10476605185936251,-0.21554791971499268,9.564408428102723
1.5949377563584195,0.10783872337296663,-0.19853271346864623,9.566403811628266
1.6096479726969697,0.09701136850809229,-0.2019312944366474,9.556679527068441
1.6146916146350223,0.1057282219014302,-0.19810556492998438,9.569301970095568
1.629246880476735,0.10475792324403593,-0.2126568766279467,9.558350051956337
1.6343510741323672,0.1310018441496107,-0.19876672024209044,9.57208058645953
1.649036842802996,0.1181997677194842,-0.1894054216378547,9.566145629537745
1.6551908672628275,0.1146577480848637,-0.19062280049283178,9.572563017042174
1.669175090993028,0.10781359092959905,-0.2048806507980306,9.581573081473959
1.6747612943269126,0.11106593769598797,-0.2078637838774339,9.548528223044888
1.6888303446682853,0.10638550558387465,-0.20874360261999336,9.572735106975328
1.6944184173853292,0.10202585706705533,-0.20983742923633134,9.553269608877494
1.7083816013304838,0.111246220079967,-0.21257209932068202,9.548407390697117
1.714162575061666,0.09926364951492164,-0.20436546600454564,9.56536323911631
1.7297333838239723,0.09662595216937407,-0.20023485650875836,9.563406190313135
1.7369167386195288,0.09556839325430515,-0.2050465473116806,9.5711282328174
1.7504325335474822,0.08740655727391954,-0.20405951670929962,9.546639507339961
1.756504559674699,0.11870744946374581,-0.2066264780893848,9.54678176558746
1.77002946802556,0.11492140480228408,-0.2049611131472899,9.562522816195031
1.777191671948606,0.11553869459038182,-0.2163130870689974,9.555155951242918
1.7904418099429675,0.10359980817128667,-0.1984923625202503,9.547235659653136
1.7967997406361695,0.11065570751710242,-0.21022785235070288,9.551578793551231
1.8101058290990197,0.09797683934881703,-0.20521483898657342,9.559462378086177
1.8164580229735254,0.11107038163482534,-0.19217716507409613,9.564247464567233
1.8300590138655621,0.0929578343602492,-0.2073264985556754,9.563634676333118
1.8382018848381905,0.1260938344222464,-0.21508294684221263,9.547147257105534
1.851060759771053,0.12847700640893023,-0.20640982982983394,9.544854846390175
1.8578472638276986,0.1084445890833849,-0.20786800931440427,9.56610623868553
1.871538346461833,0.1029916678790687,-0.2095318215489692,9.561118336019465
1.8794280011883795,0.10289952848340296,-0.2045348711606466,9.554420379496735
1.8922724178361412,0.11334240344849172,-0.2104441949757934,9.562557251023096
1.8991934987333425,0.1128467482701001,-0.18724300300521443,9.570670254727153
1.9118295169130108,0.10974594984705187,-0.19369176530834697,9.559305491266553
1.918886961644342,0.10358495909653848,-0.206134298492264,9.554659435836392
1.931394184984974,0.12367618557748716,-0.2113694043373336,9.553165148727308
1.938591449189885,0.11553442338498716,-0.1911666038074705,9.584731055693712
1.9508835449589232,0.09352372357006168,-0.20278497575655816,9.555996743563576
1.9588657351961551,0.09052282033255006,-0.19108713594362634,9.565067559588568
1.9716701535551135,0.0930815896692522,-0.19792683501591038,9.557309590435912
1.9786924386624094,0.10963711878682383,-0.20761644119571185,9.550094009165367
1.991749216587333,0.12051147903155035,-0.21211217462717277,9.55142502800403
1.9995591130881303,0.11277386463713378,-0.19010364899723367,9.574694019815329
2.0115911436180047,0.09907254319145159,-0.20857996151892022,9.566682917824798
2.019188491474171,0.10831510405761692,-0.1926091776937245,9.558262082461065
2.0311923223377266,0.11376024358637699,-0.20866331185433246,9.550754434582815
2.0388550175965925,0.10792345010366843,-0.2106532211092854,9.575985968166643
2.0507836265333306,0.0875024728636439,-0.20654755322157647,9.56468736381618
2.0585019407607477,0.11108198997263688,-0.19695498638028816,9.56341584337317
2.0702969579779977,0.1027015222487875,-0.19422350696452267,9.563960640108363
2.0781474504792667,0.08452391373963408,-0.18853391316731336,9.574453945473024
2.0898872132105533,0.08044392249560184,-0.20281022897337456,9.552610431356314
2.0978179968160835,0.10786983098168831,-0.20362516670099937,9.551661165564557
2.109479314924436,0.09801037912127097,-0.193105724426634,9.547062740685217
2.11746769548896,0.10367352473380756,-0.21943234345544832,9.550667718525448
2.1289999961197266,0.11656707152797324,-0.20123623406692692,9.55294840508431
2.137082725900224,0.11875525477984565,-0.1946374206067821,9.556022087913446
2.1485764185323846,0.10136682848993936,-0.19984681856767741,9.556171062774316
2.156682049584834,0.1260271165755376,-0.22458651002484137,9.53079391525335
2.168853776541236,0.09829808207902169,-0.20676829765325228,9.557060386322027
2.177734052573002,0.10983187343140151,-0.21547262125652447,9.56958272154903
2.18976374866109,0.12405510457687823,-0.19661095237067866,9.566635512395003
2.1980190268550257,0.092819733755891,-0.18925984949418634,9.555669106344807
2.209494042831949,0.09760021028488405,-0.20989201927251785,9.55477756197596
2.2187499265576536,0.12185797013175384,-0.19889388803448205,9.55108589290402
2.2298275934604512,0.08366696530692504,-0.19603716441695918,9.55847195852155
2.2384216756677007,0.10963019538997766,-0.19918916096519304,9.565791987597759
2.249439789416947,0.10368757379851037,-0.19365943915250766,9.54849779798677
2.2580363594599686,0.11307760134516684,-0.2165621409601055,9.55223187133285
2.2690394799883977,0.11027766700667657,-0.19938521895248454,9.562476030919669
2.278795829949605,0.11750914195530539,-0.19919454484379348,9.558039866499632
2.290530239703868,0.08241719004674047,-0.19463500211178428,9.553975282108649
2.2993977686538494,0.10433191760231296,-0.20847256745795034,9.5402017273232
2.3101128802508653,0.12221727618898943,-0.19938253567069839,9.553522477355465
2.3190247841380653,0.10132380610252562,-0.19564265109357878,9.537219987605273
2.3306529998527417,0.10021447410075651,-0.20908154462750836,9.55891709525383
2.3396586027491044,0.09349230372405556,-0.20438049568189964,9.561733373999516
2.3502387548837125,0.10843878585057183,-0.19974555905837835,9.55113355198614
2.359317616891173,0.11399239950687207,-0.19913691604365547,9.564592794750258
2.369824649695112,0.09696765093687568,-0.19637790437906288,9.556541497129787
2.3790029088542117,0.10865430560578315,-0.20454537364797967,9.563697540747807
2.389368730129376,0.10261863090511199,-0.1990755732016825,9.554201268998787
2.3989069274302226,0.10568747571138516,-0.19060733481579953,9.566469680878805
2.4101156163741586,0.09700685607481176,-0.19194409199728246,9.563783107027229
2.4191991335009004,0.09549476162878254,-0.20130214721371364,9.562021597961202
2.4295838255724087,0.12353503104074436,-0.2213568122304398,9.540181967690643
2.4388454536337605,0.1131447540573662,-0.19888780388564398,9.572702000525393
2.4491703371044413,0.09488030573432245,-0.20815168481840088,9.570496921403443
2.4585162892733528,0.11051757144059515,-0.2072427697597171,9.542285302053891
2.468760000119341,0.1267015039354411,-0.20575747282511206,9.558829138853028
2.4781864652014267,0.10330566909156343,-0.20792885994481533,9.560066039499477
2.488317703324218,0.10408568230820243,-0.19922825211839162,9.55839314121734
2.4977781851779906,0.10434400857392477,-0.2061059307342294,9.542294971882523
2.5078996857323235,0.10592735249135422,-0.19625061216637235,9.553996453157366
2.5173675786035856,0.10622520938229765,-0.201821534434147,9.558017922694653
2.5274528134659167,0.08287416908230046,-0.19308190322228594,9.554252057050476
2.5371986891003324,0.10928714302140632,-0.20716365468249875,9.53861077200816
2.5480421291665696,0.115582833437861,-0.20891136059721957,9.551307356711527
2.5577521093427937,0.08344508121304108,-0.19471144702520143,9.576377916212405
2.567638292949447,0.09619604079028321,-0.21366091344877589,9.566405198328885
2.5773376350504558,0.11190646116157592,-0.21844502475466906,9.53680959457584
2.587215787819482,0.11361389011735994,-0.19480723866011312,9.560424699533595
2.5969949175145217,0.10896622456296935,-0.1997831789126548,9.565602359612166
2.606826171170496,0.07814462876855191,-0.2068225100384132,9.553935087317203
2.6166209515272234,0.12218094522926046,-0.21489747672328416,9.550208917557251
2.626428925787231,0.10355845339819593,-0.18777594217738255,9.544613670233682
2.6362044629971995,0.11629633370653857,-0.21825882973784666,9.530596259329423
2.6462806448941407,0.10352635847259481,-0.19818468917847654,9.559280609111571
2.657056650714033,0.09316627663910311,-0.20859254912747727,9.545021128071582
2.666448958541081,0.1202060208921407,-0.205167704384418,9.567144293580496
2.676615000953729,0.09321292353058094,-0.20361089778620303,9.5691646712121
2.6860795090895984,0.10769865695939519,-0.21477134721315022,9.544392475705557
2.696255924964437,0.12605081386680017,-0.21080044714447407,9.548480641681417
2.705695993770818,0.12889506545147586,-0.20529256941603105,9.555491231461586
2.7158924127414372,0.08879624041331352,-0.1996369135631061,9.571013208564773
2.72524091899717,0.10071027634443101,-0.21153142085972965,9.553631286746587
2.735488641953865,0.1202172999912683,-0.20248983275335972,9.553690752142735
2.7448711668602725,0.0971082171680551,-0.19984888775345083,9.55136427959474
2.7550842465885146,0.11116833044555542,-0.2150349203397363,9.556682780785332
2.765027577432341,0.09154856436096313,-0.19542413612509787,9.562208582486791
2.7759007405517497,0.09747235197338108,-0.21194625052703428,9.55007295744874
2.7849546320076595,0.12957617120307333,-0.2090426331135493,9.55850315016884
2.7955011933161433,0.1051679640966057,-0.20893930804589214,9.553292247444812
2.804583204238257,0.11902198930870664,-0.210105846961279,9.548278655762493
2.8150360882775423,0.12088551302837768,-0.19274177461635233,9.55741616193114
2.824105539978634,0.11587529026708988,-0.20149207217712106,9.566138569170983
2.834753086037113,0.11288563729370155,-0.20403591341437535,9.553362760085298
2.843721831591378,0.10926441893065424,-0.200660430464587,9.539285030289284
2.8544096590834975,0.1153721626591649,-0.20102023902025587,9.551412090954088
2.8633015871880496,0.10536206930193179,-0.20686234599493972,9.542688826162717
2.8739983792041204,0.10282215204546881,-0.20942963043294108,9.555747884571154
2.882862855973456,0.1070282500894825,-0.2032068897041964,9.549298926034833
2.893677622766688,0.11058845464570607,-0.19203949725192132,9.563466036631942
2.9024160226240805,0.1001791028507055,-0.20554337923118499,9.544186188124094
2.913597358960437,0.11662511829790675,-0.20498254633520388,9.562993130311861
2.923157645796301,0.10377894941593237,-0.2064421318677501,9.549807824187225
2.933881095986727,0.1180769340872375,-0.21163646318762713,9.54968362364848
2.9427057780605486,0.11618112761420292,-0.20911131677044223,9.571443516410458
2.953558020311534,0.09663774868966941,-0.2090641687335068,9.557603125505976
2.962182310675223,0.11643193287338593,-0.21842622930358088,9.55554867337279
2.9731022587317777,0.10258689068070125,-0.2024182690090891,9.55018054582644
2.981825175153276,0.11140590409542435,-0.21370025830675593,9.547574271654812
2.9926366467389665,0.09152082794006644,-0.203839400017103,9.555257536875951
3.0014693663907934,0.1149832158250973,-0.2053480849117191,9.560822383491015
3.0124552166362992,0.10173711421826875,-0.19261517140040516,9.559651219464744
3.0210301653694147,0.09418112270806206,-0.2214065328985418,9.548372197253697
3.0320427881440097,0.11494116441759877,-0.20241320308626928,9.558280475926134
3.0406108033597623,0.1115012503143333,-0.19142819803939107,9.560997856325324
3.05170442459787,0.0916275693145822,-0.18411298548694657,9.547094813134866
3.0602123213038595,0.0943228625152508,-0.20242238387160108,9.555870168074971
3.071361029713781,0.12276817155744679,-0.21221112767823186,9.563938351123292
3.0798139002546754,0.08759422363300616,-0.18922488837211232,9.552994758727056
3.0909584488404542,0.10653720943014788,-0.22283358823435293,9.557701409967342
3.0993759212369145,0.11930863849007572,-0.2080319101682452,9.546751475318693
3.111492808583138,0.08530050467808907,-0.2080052048213593,9.55356015339666
3.119971453418359,0.10251163502201897,-0.19413596721950985,9.573890228208885
3.1312209192086957,0.09472597572417919,-0.19759612448923655,9.560284121623312
3.1395642169342337,0.11674245410310025,-0.22008996297495229,9.556066287076128
3.150878473981344,0.11640763734560615,-0.1977911796845508,9.556211314642507
3.1591720119608033,0.10752020480313619,-0.1821816523555904,9.561037450516045
3.1705144586521055,0.09332095188513238,-0.18786099052759606,9.562282536304012
3.178710254485487,0.10851286709910389,-0.21026405448324784,9.546486937805396
3.1901242554530054,0.10865662586227064,-0.18616190948693095,9.564443583552746
3.1983263924870724,0.08180233380905676,-0.18968216594168183,9.572091591662753
3.2097642483784883,0.10898390104880341,-0.2129221767129889,9.548120067531435
3.2179560738773603,0.1156110221076078,-0.22404982884025457,9.560992398822906
3.229364085539111,0.10787447130081054,-0.20146960537231112,9.574812703368012
3.2381872775220235,0.09789952549684637,-0.18459203664618076,9.549999835067869
3.250130672937213,0.08068964922109043,-0.19341569534646885,9.547996612855693
3.258016029125575,0.1021579111747624,-0.20351857804558862,9.557819748892785
3.269692826702112,0.107983319279208,-0.18875620217055686,9.550659641759744
3.2776293657687687,0.08374075166142801,-0.20008489997845116,9.567008917853915
3.2893351265771424,0.0840310024766992,-0.20722472100102668,9.529467165000574
3.297245333423511,0.10404927112267827,-0.2132361750982008,9.5588319752271
3.3089756160185666,0.08097391417968347,-0.19432615773374418,9.568623378128471
3.3168828932721355,0.09155074696117524,-0.20466734694121624,9.564364178736886
3.3295591400643145,0.10516270953491301,-0.20938054785558252,9.542148567137925
3.3374549802206612,0.10085256954536889,-0.21515821288054995,9.555357609886306
3.3492309451668887,0.11314424741944558,-0.20817122687760484,9.561874247921173
3.3569748422153887,0.10801382303561238,-0.19732524104516883,9.558492861397234
3.36878782285876,0.11875810625288388,-0.20447132675826557,9.54350401737049
3.376611524154886,0.1186574546145813,-0.21803894147735756,9.55698643180331
3.388486857593478,0.11263667628918045,-0.1973095879383762,9.566553496725684
3.3962274476470378,0.11127110661988365,-0.201504211895814,9.559346856805428
3.4080676577177,0.10425272097690844,-0.2063945189341819,9.54157788341157
3.415689530666213,0.12531153656129038,-0.2112792521316679,9.553533829616711
3.427781069066687,0.09381711810239349,-0.21367628870518854,9.571600735103738
3.435308519046429,0.10172551743699486,-0.2024516611045213,9.553596476976384
3.447604492438306,0.1016086387386238,-0.21161396790720288,9.5592141554318
3.4567624508435295,0.10173930998428063,-0.20324710655521835,9.557851243605155
3.4690607368692543,0.08628038454660715,-0.19665044068152482,9.550994133445018
3.476450271315054,0.10216827041395142,-0.20593450296304688,9.55636654479123
3.489324808636627,0.10116619059975267,-0.2095843853275762,9.563381678945422
3.4972045389019355,0.09324949873432449,-0.19463674172022177,9.559434574077232
3.5092206727548394,0.08766122208655718,-0.18763041444965162,9.552743342124549
3.5167706795084874,0.10405872456104735,-0.21835250038230267,9.565214325462483
3.5288873743558784,0.11874635345847041,-0.20240169798255042,9.56156954577126
3.5363747693890955,0.11151207672509653,-0.21138866464139458,9.550882109455573
3.5485098212457338,0.1083068461179377,-0.20971754745891386,9.538017424655267
3.555909628855939,0.12226089977380147,-0.2077753334808901,9.546787391370371
3.568138699500504,0.10994287124632801,-0.1892007748528742,9.569551419268752
3.575526645880338,0.10066062293499316,-0.21958280041690928,9.546793375868194
3.5877844364438087,0.09552421385156985,-0.19450822513505256,9.538410274055293
3.595168022228301,0.10678329947581403,-0.22109314158424298,9.549157837739953
3.6083392355446384,0.11590451230998065,-0.21069492230446626,9.550084972004877
3.6157494475768037,0.10922577913478886,-0.19418461863809214,9.552814298512404
3.62805074374215,0.09839991579780875,-0.19561085491164606,9.547380097916129
3.6362052128919404,0.08535596431157585,-0.19964970462982587,9.557822857325082
3.648713526958987,0.11336739712676284,-0.21160278007541486,9.556995485251235
3.655863904177465,0.11922479182078498,-0.21271575599634057,9.549764121740433
3.6682702163044945,0.10721047896213735,-0.18632565872924298,9.579279792320609
3.6754896518610436,0.08393746530932389,-0.19918699108624263,9.552748512891021
3.687849043233987,0.10363446021451962,-0.20610155225766835,9.553629550500734
3.695843871079172,0.12828338484848265,-0.21262626829792503,9.552124077515673
3.7086129572853133,0.11806977130177519,-0.19819974027699114,9.566497968693476
3.7156401750521146,0.08428566116063292,-0.2034139892942928,9.547022359626823
3.728195838375619,0.10049489001603269,-0.19629374553169043,9.560526871290124
3.735154697296165,0.1279338080825072,-0.2061897758842506,9.550898921000734
3.747840710684894,0.10799446462916915,-0.18979914590482255,9.568252596917926
3.754790941972568,0.07748860624779404,-0.19411571726857604,9.56245678638365
3.7674035715810907,0.12253942065305128,-0.19451195886755562,9.542663111373404
3.7744228977484138,0.11596717211347797,-0.19421266111704655,9.548706294633389
3.787055644377809,0.09813519954619578,-0.1971838966967721,9.564058791988886
3.7940590714137095,0.08990462673748587,-0.19559818974258755,9.554499018841023
3.8077548346841885,0.08934808937890835,-0.19467674920866523,9.545217895031701
3.815651441114853,0.08836307997095191,-0.1953743383433775,9.559683774404736
3.828228939233343,0.10462169308767241,-0.21051540275875705,9.55292919190627
3.835663122556968,0.10868956712338358,-0.20290655163143434,9.55875531977855
3.849074344764407,0.12164596605024798,-0.2154566314607325,9.564849671769393
3.8557788870735026,0.10487410481774763,-0.20280408070927292,9.547740183496094
3.8695503971031395,0.10615596861110746,-0.19123785949022368,9.56480476376935
3.876400453322209,0.08481950871628766,-0.1971851494763466,9.563289162807328
3.8892314450712835,0.0875112349634482,-0.20028632599676133,9.558772712547425
3.8960388184047314,0.11008794499714655,-0.20273908763623974,9.561864464440797
3.9087983672694273,0.10800399665409399,-0.20334321778030187,9.540920772537786
3.915896499761369,0.1118366098848803,-0.20713663144060468,9.564879645295308
3.929625732873439,0.08465544641652922,-0.19805435557782672,9.545938159386141
3.9361047415518278,0.1100823312552357,-0.20658262243206627,9.550268574827037
3.9491111311017972,0.10773351682714499,-0.20836745311011265,9.574663996369392
3.9564923007033848,0.10806841959090531,-0.19050879266977985,9.56376654529246
3.9698421092266796,0.10198643932577105,-0.20343267777897162,9.553268798737633
3.976257029948141,0.10457859296944197,-0.2067527907717614,9.549335788701244
3.989460598832806,0.11337948783821392,-0.2055301473208241,9.550681998337998
3.9958501001536817,0.10716455262272087,-0.19983743437526935,9.561721528449162
4.009678434416722,0.1229609244767261,-0.22111921774013865,9.534390919841469
4.016527143765999,0.09610880230985373,-0.20171484328465789,9.55677989952505
4.029571493928824,0.08957995879520451,-0.20674872253506352,9.55282599313895
4.036179821068353,0.11250915656001625,-0.20106766889786445,9.55047949928533
4.050350284349981,0.11369941915318393,-0.2095681148284372,9.541640876532854
4.057663746596926,0.10157628160145284,-0.1818679484347299,9.554419913411033
4.070937883932902,0.09535483319763853,-0.1897547412094663,9.560166250104485
4.0772918856375435,0.10404551953273394,-0.1922883201065668,9.557227833194222
4.090546334876578,0.10216016058290017,-0.19640755297247758,9.556327852145756
4.096935508824466,0.10337177123488922,-0.20208141373840086,9.54375915600163
4.11114517834676,0.12654195377005092,-0.21634044548075873,9.540403719416327
4.117448717140475,0.11412054403336465,-0.20199986705943118,9.544818163837682
4.130738956433891,0.07231275158672235,-0.19476058041668534,9.558915344438645
4.13708488529754,0.10724108929937841,-0.21183271427685224,9.562394169995473
4.150411149561873,0.12423819806193802,-0.2209621061516813,9.553397498368485
4.156686018621071,0.1089891254077783,-0.2119098638820491,9.560687778985445
4.170070332283724,0.08840168452530163,-0.18966161179195157,9.564994637849962
4.176245011008991,0.11289755269291904,-0.21343831118635165,9.545310687791677
4.189593692916482,0.10767857344786436,-0.20200336946402472,9.541858427828918
4.195890970238663,0.11027646311167137,-0.19304225508684492,9.568249737486672
4.209204086757206,0.09379840377759786,-0.21700542860725092,9.557293894208037
4.216218282800705,0.09829449062898242,-0.21936070781473485,9.543001877104807
4.229986289911986,0.12572309994473316,-0.21061493256078745,9.544167703444943
4.236009727551044,0.10283047453572136,-0.19414866333849976,9.574841208211968
4.249574445206233,0.08881077605059506,-0.19423037065238824,9.570224312411916
4.255622028830022,0.1069430995184966,-0.20925276953356925,9.542897283461592
4.2692636587021005,0.114665175328331,-0.20614973284950502,9.543433495452122
4.2751020892494385,0.08552327385799172,-0.18696338711202917,9.576419958164163
4.289442350956734,0.07967460437904743,-0.18817800463507042,9.565065700786777
4.295936421689736,0.10855372122971085,-0.21023687054423965,9.53947720157064
4.309350789261592,0.11964049186869673,-0.1952693773232757,9.551326091590393
4.315477567398511,0.0998761005654601,-0.18725268827840053,9.566772789311392
4.329008867205572,0.09518534076978635,-0.1925254887475239,9.553930422135354
4.335143128327366,0.09133577521868787,-0.20576236079962407,9.554160384896264
4.349613678411446,0.10111856712537819,-0.2078735985923576,9.555152281518396
4.355687992140559,0.10603691049977709,-0.19400096439332826,9.55279194074905
4.36923573641962,0.10736399199576815,-0.2022724130927038,9.551703786526321
4.375686003581324,0.08571904655247883,-0.1882852962217798,9.570457130592184
4.390058836305686,0.09143394507396287,-0.19259323745892457,9.56931260649844
4.395773391287767,0.1073605945557662,-0.2130786378242783,9.535454010862766
4.409628807712348,0.12517540091077414,-0.21536269865670643,9.55391114577537
4.41533123945947,0.10263171219291325,-0.198606172340351,9.55943778903708
4.429241653651552,0.09312441554024908,-0.2138607622318538,9.56170740683494
4.434931418501889,0.11274113102817228,-0.20411044505461082,9.550594978375582
4.449661009929928,0.12370819988854127,-0.21639268174549436,9.549527200731411
4.455612629308525,0.11344388974514891,-0.1970569978284193,9.579944200737069
4.46945439658824,0.10460916650338238,-0.18796667772672976,9.544779128875756
4.475193142778329,0.0972041760121283,-0.21554736022709942,9.544035608210399
4.489088642654285,0.1269766636243815,-0.21407795582376227,9.547879483414919
4.494780740176189,0.09424791517316222,-0.1993102294515044,9.579691657181169
4.508713122873796,0.0739092657858674,-0.1898077845448745,9.56496636267226
4.51432238234761,0.09280399758351228,-0.2013585714720942,9.546591544897025
4.528327878523104,0.13113281582873593,-0.22188973200638942,9.550345696367053
4.533898262261768,0.0981450486167357,-0.2025769678365262,9.583743981044218
4.548570810524418,0.09696124185441223,-0.21085844428667339,9.556680158862477
4.555139521328933,0.1147271752806698,-0.20077223602619673,9.56555219027257
4.570245663677453,0.0956086928496578,-0.18901362481308892,9.567023076895023
4.5761272769557655,0.10217747484748618,-0.19320088719916512,9.536263056554876
4.590719103933312,0.0925853504698009,-0.2015556232566551,9.556948511740373
4.596876990758398,0.10340911094243506,-0.20304186761730314,9.56694384049898
4.610735041058122,0.10639047039992931,-0.21611115871303405,9.542253932130963
4.616415301216989,0.11488372082732322,-0.20985230282125836,9.54999642330667
4.6304128127834,0.09832150808471599,-0.19208452642221216,9.566991181011641
4.636029370961115,0.09580418939148744,-0.19664524259829305,9.556481106344545
4.650967695296626,0.10393633957612278,-0.21863383404091485,9.552946256955824
4.657488796441209,0.07538618722137069,-0.20675781507856433,9.558656218658266
4.671695825489554,0.10620691127959989,-0.20346225684699806,9.563910159260981
4.677168966050532,0.10242046419516028,-0.1972713678788788,9.565269444698528
4.6913323893431,0.11411192067176054,-0.19266275527803456,9.569769724367958
4.696785354099833,0.09195710480405861,-0.21606521699232428,9.551524278795998
4.7109311328230445,0.10258649138130731,-0.1939723341040529,9.569420224277756
4.7163318771276135,0.08545309136878372,-0.18836161832762538,9.553228336647614
4.7305676405426285,0.09772710344185018,-0.20057222554271364,9.55856933851619
4.7359471327660625,0.08535528591631657,-0.21092723716576559,9.552523834445076
4.750213190928417,0.10418916164540343,-0.20341885025333023,9.565265190619085
4.755562705272201,0.09962956686829161,-0.19459419946444703,9.551198212695255
4.7698485095574705,0.0900573491391164,-0.21724095075081365,9.537914205976234
4.775108963904447,0.11026681866245237,-0.20225799163672512,9.568304527247744
4.789448361522725,0.10291919749025961,-0.19766264631162875,9.551014856167733
4.794724087837788,0.09350854818778524,-0.18762044990667723,9.551993762992057
4.809093439428009,0.09922901602663357,-0.21344175931890466,9.549834229807825
4.814337304331789,0.1080510720692693,-0.2050947321249543,9.57427913483901
4.828743086413567,0.08607173963740872,-0.20814247256556406,9.570940364743468
4.83391974966143,0.11253806417857687,-0.21453465098131172,9.536015260695793
4.848315306116718,0.1070311019036522,-0.2084181171880611,9.527126331282167
4.853510734519524,0.1219540848595148,-0.19588479403242817,9.565769559611091
4.867967589041061,0.08410559902756397,-0.19846298347745153,9.56226227506902
4.873099534057085,0.11188938550999285,-0.20856576201190513,9.552817756281538
4.887598111311279,0.10802535526162138,-0.19295180702366443,9.541072920984751
4.8927260394823815,0.09214580390679311,-0.20480742754626036,9.558648145484488
4.907172295285867,0.08726604981046725,-0.19645356439858366,9.570442917585686
4.912315699456752,0.09961692643518201,-0.2063878736316213,9.563290181476312
4.926807935434603,0.09629760152666103,-0.18569010068001351,9.567371506608056
4.931956134693841,0.1111638188219535,-0.2151623333301598,9.550566595622165
4.9463903189196445,0.11758380247816289,-0.21088203210096035,9.555699338077828
4.952616584389931,0.10097904167090445,-0.21362869712404364,9.541890113275079
4.968257141217385,0.09631769496011727,-0.2071026852773198,9.553691189309108
4.972949530168826,0.1166910680056174,-0.20410377851215142,9.551245189244643
4.988544773002239,0.1130999787582161,-0.21687185921482308,9.538858525378089
4.993692863067782,0.10882595193369425,-0.19968175500064997,9.562940873093632
5.0083607939594215,0.0969509002955934,-0.19409909756726998,9.55906495767786
5.013265795626116,0.10939671898198045,-0.20475053504667606,9.548998061324019
5.0279888580195005,0.09784352483598079,-0.20179192401900384,9.554048631513044
5.032863444660266,0.10272343067054857,-0.19145430392910617,9.55311835439759
5.047582051638786,0.08799462452704761,-0.19252203190346323,9.560359207464986
5.052456440832935,0.11007210566193848,-0.21021372420642875,9.54508525951273
5.067231956108634,0.10039413755431276,-0.1811422966042668,9.558039741786954
5.072069132481712,0.09772159615761393,-0.2127356326832377,9.556339907982606
5.0868794141949545,0.10726371544295275,-0.21201071223737059,9.561466525583578
5.091678441133723,0.1103387026751968,-0.20492619099065684,9.559889517728616
5.106462989520443,0.10559333679983779,-0.20984563388915445,9.541630982460774
5.111238025312427,0.10014276167360586,-0.22200060786378414,9.536659791162911
5.1261063408638865,0.11349421564391875,-0.20322751809062953,9.568942145349029
5.130852892518697,0.11637404980875582,-0.20938976983700713,9.554816319113376
5.145750389732754,0.10246431820939667,-0.2005995635235967,9.563128469317128
5.150468905794446,0.10214673448044304,-0.19909333438373655,9.538944000949321
5.165338653797254,0.11386243035321195,-0.20775377498603015,9.563757814975583
5.170024187333906,0.09544942460615273,-0.19526342548099804,9.573214760461235
5.184972938735063,0.09993279937390966,-0.20688815056402501,9.553993883716931
5.189650809143038,0.1327782897887768,-0.21307083046791803,9.55057204363723
5.2045969111142325,0.11444930641160582,-0.21454333925866678,9.549387967127418
5.210043228891665,0.11781478085836078,-0.21438321406609953,9.562510535296534
5.225308628032951,0.107115030559844,-0.19958602840900871,9.545359630646297
5.229802317457443,0.10695174788875542,-0.21867644445417944,9.547831443836175
5.244914208346806,0.11711604724300761,-0.21484904884141987,9.563255931712016
5.249353247368255,0.09121045553521773,-0.1922176654769445,9.56774740569005
5.264523165362384,0.0923955344276608,-0.1998771869370593,9.558432290116288
5.268941987253706,0.10590625936536897,-0.20431114116196786,9.547470589670802
5.284319644942719,0.12142697413632117,-0.2115576072538357,9.545461559306204
5.289633118959425,0.10444975298421832,-0.20096243434208255,9.558641798951118
5.304728074023305,0.10701321843378468,-0.18685724553878913,9.552013951895342
5.309223648925417,0.10709118157015321,-0.22165769613596048,9.548259013828138
5.324385479359902,0.10342119025673827,-0.21082335078303746,9.555620790426405
5.328825937292561,0.1117237644031806,-0.19501924826438755,9.561994760113224
5.343971630818415,0.10159558584069325,-0.19336406388643518,9.554732916067815
5.348384862662377,0.10560589211464518,-0.19989151680090825,9.540197968412647
5.363618015742907,0.1223530922724476,-0.20092093134987507,9.565094946432861
5.367997412052608,0.10347554708139707,-0.18426062308648847,9.556766331876853
5.383264464817394,0.08245113153480048,-0.19364931911697553,9.550631617443372
5.387610148941715,0.10844623747816393,-0.213560155846208,9.554656425167224
5.402853039309363,0.10673705274007067,-0.18835897233828636,9.57262997957849
5.407163493420833,0.08538317818957376,-0.20403058098867138,9.56089376154929
5.4224947806397035,0.10255221897796558,-0.19683058638485396,9.544615070295102
5.426779655436139,0.10526112048973403,-0.2116445134703955,9.549575147366074
5.442138404082322,0.11356676267441487,-0.19813512664882818,9.572495963991956
5.446396592463966,0.08094702739618982,-0.20113885738854445,9.540602420230137
5.4617670059684915,0.10783565859092321,-0.19833562443479755,9.55347929821025
5.465939443884817,0.0968405309481903,-0.19322657183615177,9.55127014488596
5.4813741456287,0.09381087268257596,-0.18727833540952252,9.565072167840066
5.485556791578228,0.10678779177865651,-0.2111254766793248,9.547573901261405
5.501018974798338,0.11623140235692832,-0.1896585809837152,9.542509840327874
5.5051726835059265,0.1031290840099242,-0.19516533085282503,9.543070218620107
5.520654929263311,0.11286591389467972,-0.20491805933065582,9.536136103367333
5.524713892250366,0.1126720912688023,-0.20229823349380063,9.557511593374567
5.540264706186037,0.10265034346425143,-0.1974467455888823,9.556935548234822
5.544306246001892,0.09814206638795574,-0.19577341343090376,9.543102730649277
5.560028821623671,0.09816687064058223,-0.2221703951510898,9.545040161154692
5.564972479950362,0.0874001358401744,-0.19283668364395368,9.559355083768207
5.5804679872519,0.09793368939039299,-0.19412810625562169,9.561065515683424
5.584515181763713,0.10377328180694535,-0.18878146322307437,9.558649835096276
5.600162919800005,0.11419428497286147,-0.20050185631344417,9.553440543817647
5.604139027782536,0.09791953755533615,-0.20167139836220366,9.559756090981454
5.619729479747368,0.1230494033104572,-0.20396098539980123,9.553652381042918
5.623732383618797,0.10394419675505773,-0.19899293799563172,9.548343861692512
5.639375243706242,0.1184637271943927,-0.21250781591846188,9.549097155252433
5.6433482547261145,0.1173926587292614,-0.20248769982437245,9.54305510938858
5.65901834346878,0.12195599053941532,-0.19476171848778986,9.55275768776603
5.662966785520629,0.10184776398239721,-0.2000266622988847,9.557120904849226
5.678600723924082,0.1073712001654888,-0.20941779175747743,9.54832962890793
5.682493043275636,0.11264529801966056,-0.19278084060488518,9.561044663934023
5.698239132056907,0.10034640247994528,-0.19337793706732367,9.54280428618273
5.702155111341098,0.09227552348766911,-0.20352108585222728,9.549712076468253
5.717845429801257,0.12051191292374107,-0.20392677686945365,9.546029908623431
5.722557462191569,0.1062593646089235,-0.20149075966793248,9.554627265174956
5.738505242241425,0.1056169422878127,-0.20645385208771425,9.566708828498102
5.74251895629565,0.10535440343603912,-0.19233242206456397,9.558989897399004
5.759272252734657,0.09638928262349683,-0.21357141919288586,9.565413245269463
5.762826409396541,0.11314309505334352,-0.21113145461522825,9.555371941253735
5.778881168923525,0.12097185001773303,-0.21684561393607685,9.548627932491204
5.782389511612774,0.11350346410741953,-0.21516750310067864,9.557190010321559
5.798603907936323,0.10321864168406741,-0.20589355445290683,9.571046332205015
5.803112145946619,0.09748648414304695,-0.19771026675153816,9.547739734888484
5.819027109490699,0.09038939578366852,-0.22619822769874517,9.545171902363247
5.822599030839667,0.12124977318963212,-0.20970325902322212,9.561396655114638
5.839219589135959,0.10022911392364087,-0.18911746098543883,9.564902418957653
5.843366553110658,0.09324591400874988,-0.18491189971749214,9.561412116977985
5.859262696095481,0.09855348169217634,-0.19761231641098884,9.564834115365944
5.863922148297107,0.11097617994851187,-0.1870693345713137,9.559286845532542
5.8797944584245405,0.08418753381833514,-0.20076863053043872,9.540503705625728
5.883623921503489,0.13174296769472763,-0.21295737940894088,9.560418638223815
5.900294689719897,0.10556897080033993,-0.19798433341938113,9.545287275750189
5.904613110361535,0.11512642256937544,-0.2011109207458688,9.54833097888216
5.921078461825199,0.09887911489327486,-0.19715545679738794,9.581765064821518
5.925031100514584,0.11657120288535953,-0.18672144228398543,9.548448007114201
5.941813919595868,0.08492091399310259,-0.19847722596603212,9.544831422507839
5.945551293941488,0.09679182634797609,-0.2048069278518382,9.556962259642575
5.962582397771127,0.10289813925183179,-0.19733517661314776,9.551369198820192
5.96572394573762,0.10195892762004617,-0.20525752282156248,9.552349930996348
5.982105459011582,0.12144984982025135,-0.20280613151519544,9.565044529118019
5.985384131212243,0.09562224613350805,-0.19969430140621575,9.56340782081943
6.00172040782572,0.11624365495765765,-0.20802432235035534,9.553390141659028
6.005024624358134,0.11677130917104689,-0.21569494278195414,9.542791104693832
6.021331203103232,0.1304657691179179,-0.2074363325697132,9.567357745355032
6.024597530007642,0.0866448741049235,-0.19952123722866688,9.556310191302336
6.0408777156606055,0.11533953011737984,-0.22152575497266636,9.549220020295303
6.0448438734886,0.11198656087595152,-0.20989294455720983,9.549459465856824
6.061623636602057,0.12127502285504947,-0.2115978528893903,9.554937434985442
6.064740674590426,0.10325780773514093,-0.19315361498728145,9.555922957939293
6.081234330513233,0.09030603324211436,-0.20055872261719382,9.542209457133733
6.084378359899688,0.1174095495072566,-0.20526770062670988,9.543562454101426
6.100855252227816,0.11573955646807503,-0.19928451625225568,9.552071606043446
6.104051486437299,0.07776351370260558,-0.1920095770421225,9.565215719725613
6.121478208511386,0.10385344095936014,-0.19539892953146087,9.547197462943979
6.1245762092182625,0.1063422246618901,-0.20869624937070644,9.53950825500323
6.141084591764494,0.10496703287966934,-0.20531826508929876,9.562374728280576
6.144125783937603,0.106521199014336,-0.19085438123547185,9.559390310855692
6.16074295179775,0.10366331480391824,-0.2058844221294878,9.540902821572994
6.163693519092548,0.10541368742863355,-0.21792386048341694,9.553050084649533
6.180743332097842,0.11249596740400018,-0.21126026069413392,9.560725575794356
6.184504599688235,0.11461355815051452,-0.20336701906566784,9.555212149069453
6.2008290828561154,0.10281765344267534,-0.20356720255421112,9.564932648489336
6.204379096413094,0.10585873323423564,-0.1980718048773547,9.555428640701829
6.221648125639682,0.10716660236483565,-0.19876548131460314,9.552409637143498
6.224557616364654,0.10669470255994558,-0.21574475293891993,9.546547600205525
6.241211805585889,0.1192380431180894,-0.20112269350571968,9.564389744601366
6.24494683653769,0.10354638028225929,-0.1906362347080342,9.563371793488109
6.261926196880556,0.09827273490051364,-0.1980410577380878,9.540942551703823
6.2647235757239415,0.08171363619714828,-0.19184739843839038,9.57613305572165
6.281454104682318,0.09413718736667843,-0.21271955935469367,9.564487554168522
6.284332336737106,0.11266301532442874,-0.21477628693839076,9.546899191710779
6.301040706366343,0.10540775865424827,-0.20460140025546739,9.55337842433145
6.304580746142853,0.09328588643623191,-0.20852916057308057,9.570512639424992
6.321821863909897,0.09718352640626196,-0.2035683361352808,9.559070488326443
6.324453362681124,0.11831489722841335,-0.21819264311196607,9.548856351757323
6.341423352562962,0.1163340842029168,-0.2085617348131889,9.557703252619584
6.344072946805148,0.09920591530745242,-0.18552190401912552,9.567379339598803
6.361142124228123,0.08536372846917525,-0.20603163017869305,9.556711088241757
6.364693048148892,0.07779551039137891,-0.210961241814617,9.543894551064653
6.381701649189475,0.11762510296152665,-0.21081658023662408,9.551231511862328
6.385292818108707,0.12515580665453604,-0.21381461065406066,9.551310865408903
6.402172534880623,0.0940480579908065,-0.19401458150001893,9.543754512303906
6.405390329824258,0.09722950225969537,-0.19690708653742434,9.568204735924306
6.423014644494229,0.11541501858141916,-0.20066679166954607,9.558591413923718
6.426359239916928,0.10125658632185003,-0.19112730809896794,9.561919804420235
6.443558008495146,0.09541977904595833,-0.19794001311424117,9.581816068731978
6.44608919771705,0.10931850781378057,-0.22017492287221438,9.546513790130739
6.4631011440227,0.10792659375915208,-0.18856704952599831,9.557417234087787
6.465971374198156,0.09820329625985696,-0.18937820926257953,9.571112851769685
6.483935695053082,0.09314119137926925,-0.19432927966940372,9.570038107114941
6.486148363842308,0.08063043266334839,-0.20703564821067438,9.550648574084166
6.5034496595634605,0.11240437465555746,-0.21381126264967112,9.547740063668401
6.5057797966868804,0.11976679294508548,-0.20903924419956388,9.568072163181462
6.5230838217415545,0.08671048437424406,-0.19279100380144512,9.57738731154593
6.5254007266731815,0.1085835435997739,-0.2088705054832294,9.550265956835322
6.542726911764515,0.11368556861606606,-0.20317948863479984,9.545419885555676
6.544976522993067,0.11116576068738185,-0.20758466609334686,9.567120806928004
6.562271783170649,0.1000766875440441,-0.1974201871735723,9.5702812761098
6.564573402195338,0.10815598045279472,-0.2064465835492381,9.551751193826258
6.58195629362392,0.10832179072879598,-0.193238650579367,9.549976191974805
6.584186504656823,0.08765724966151595,-0.19965763955742966,9.557626942057746
6.601607466551336,0.11375710682211261,-0.2081456310427871,9.555104374811107
6.603763532032285,0.1073502523217223,-0.2171089128684144,9.550340329041246
6.621184782481662,0.1012034658380209,-0.18582293281075507,9.555468616984239
6.623352089965092,0.09096623074938995,-0.200488885808753,9.545699603398697
6.640839110297815,0.12236553352323017,-0.20717871287759065,9.550036058340336
6.642957162570391,0.09755007070620837,-0.18705112200565613,9.562351417164368
6.660497252559031,0.11172390154326166,-0.2022125112700181,9.549586114518714
6.662550734876366,0.09323650573905456,-0.2105739303699699,9.552619872048085
6.68013680671014,0.10517882057486767,-0.20140210256144345,9.571627420128435
6.682994907687556,0.10836679937990044,-0.19726421267668476,9.560438179645383
6.701184601284547,0.11989249676369182,-0.21039025576242565,9.553741689270574
6.703807735057663,0.10289539353380639,-0.19928708182108237,9.559258458958022
6.721197907310848,0.09619605666679389,-0.20961769196178903,9.55593560641238
6.724240694876104,0.10065242848515621,-0.2155898863937212,9.556517903944533
6.742015430746442,0.0877293425568882,-0.21159542593527528,9.557192961227697
6.743905593911964,0.10179850134947985,-0.2113966497675604,9.562571384545791
6.76158622185961,0.10305995465342116,-0.1919436146850304,9.555155530323583
6.7634956829774975,0.09898660664337108,-0.19995235380998108,9.5437304112669
6.781208204674319,0.11647720326368692,-0.21207084460865347,9.542868797861663
6.783137632303746,0.09107144826804733,-0.20148012142405355,9.564908923483854
6.80085725891287,0.12725518348707546,-0.2024616120583612,9.543723053455347
6.802867740336084,0.09623761928680659,-0.20472405387439893,9.549775368915933
6.8222303366180626,0.10997876979263292,-0.1873098734138002,9.551119582086502
6.824332723455624,0.09292373169576573,-0.19917352293994914,9.542240274404774
6.842072436139665,0.10615214359815364,-0.20454801380182352,9.54586611397017
6.8440563859392105,0.11109163143573338,-0.19858620016671547,9.554037470050032
6.862775967125235,0.10459228502003566,-0.20486620039305922,9.550556093986511
6.864472763802343,0.10801662810187534,-0.20463345612862124,9.547973682352866
6.882384628004872,0.0988143710142038,-0.20994105709803737,9.566030069113797
6.884045531575941,0.09542641566801077,-0.2097977027766602,9.558740756054751
6.901994767026791,0.12318794119602935,-0.1961875424852061,9.545770822230123
6.903664224038857,0.09658389197060067,-0.17894461284622315,9.549694577133312
6.921606405519437,0.11770169394335113,-0.22408368502302087,9.546758651964684
6.923650410256674,0.10459734355139749,-0.1988037785286555,9.547142744468694
6.943754871820672,0.08253928096610087,-0.19940972454697078,9.561083248215123
6.945932197219804,0.0854641410646985,-0.20365723164939448,9.558779439579704
6.963890612371503,0.08623388736993465,-0.21297297023272596,9.541918972249901
6.965411087254768,0.11291800300171098,-0.20278701100765859,9.544864651002197
6.98342293743786,0.10432765720239534,-0.1950425853870348,9.572833372450686
6.985051320735755,0.093839579515737,-0.21520698268325208,9.559660819643758
7.003138120960576,0.12116017468552756,-0.20078773633885189,9.56278631999404
7.005428838151854,0.11869988143348494,-0.20214829891231556,9.562647581996956
7.023858105510349,0.11853388877603316,-0.2084191878975473,9.56607422053953
7.0251866724191885,0.09670359441448241,-0.17073146161370623,9.553861323723327
7.043475074827579,0.09759062082937371,-0.2043442901923127,9.539292609111172
7.044777794890381,0.1207390574252862,-0.19980931039910269,9.554876836384143
7.063015886033334,0.09703237055604826,-0.19268086133448867,9.562673906125358
7.0645168274689905,0.0688921327238155,-0.19925631881088002,9.553457857416667
7.083716708185999,0.1131931891428677,-0.21860659031152638,9.540224820385644
7.0848792345993274,0.09552244210989616,-0.2066003041695062,9.561874115110724
7.10334516921007,0.10532148175136517,-0.20899259226559425,9.561150115139842
7.104641882390291,0.11266893193011693,-0.2011248219652904,9.56276186065206
7.124031507031608,0.1214066088896896,-0.20007798567291937,9.562189400866634
7.1250636827885865,0.09156747195627128,-0.20865548769855247,9.550489089241955
7.143753476256075,0.12108933286120217,-0.20816290699488577,9.540932406599849
7.145659630553333,0.10626962953042242,-0.213943993023259,9.557132079536586
7.164253309242453,0.11887660058741838,-0.20981298236531176,9.55692243631563
7.165303688164497,0.09829788015704871,-0.1916125379333546,9.54337469254313
7.183925904434335,0.06747429958292463,-0.18128394419230137,9.561663281430988
7.184849121546443,0.11171984324452247,-0.22119974678864496,9.552064832887812
7.203520822680644,0.10987093772782164,-0.19837646958762212,9.564123776401372
7.204451017729779,0.08981985886879078,-0.20631921471227666,9.548738410278059
7.223177403648036,0.1024082085726213,-0.21200202279986727,9.543509728099272
7.224053637241595,0.1119034375146855,-0.21542051273484475,9.546090532637162
7.242835877671996,0.11174762894518223,-0.19646074780507455,9.570696472321078
7.243601034926909,0.07376735652074086,-0.20413169458157376,9.575018927227104
7.263239449289389,0.1156887241167662,-0.2073195730380899,9.55692925201581
7.265092949344736,0.09523759438333299,-0.212117190812248,9.548286730200486
7.284111236420833,0.12341698791800806,-0.21491109255651075,9.562066078896663
7.284725735905337,0.12541267378465035,-0.21358662182141816,9.544921746613968
7.303710382010987,0.09889179651297293,-0.20025823272889923,9.552174840117594
7.304357932356918,0.08273829158052896,-0.19576247502505995,9.556484319862577
7.323349974114283,0.12041065221447893,-0.21455574335320288,9.552462189168837
7.323965005726123,0.1046286741993757,-0.1940896297533105,9.547925582082785
7.343006671671808,0.1158557393785355,-0.2115892725614081,9.56236404393593
7.343566786361012,0.0750148662609346,-0.21257086390426627,9.56382398689341
7.362661426248438,0.1206263489606109,-0.2191624887262103,9.56381529691156
7.363092315840682,0.09663092673614661,-0.18293891539935236,9.559851890664126
7.382295378267687,0.0993665545870536,-0.2172158193320533,9.53727521954498
7.382599386820742,0.12201328388733818,-0.21817339344160347,9.554173363089346
7.402507018582674,0.11238070170439414,-0.20578944707028732,9.567532254534372
7.404447379446671,0.11650317488127962,-0.21174271972081007,9.53775428531273
7.423346433416702,0.10389173587140839,-0.20406392769913073,9.569317098072686
7.424447119830051,0.10765797557655096,-0.20273207588631806,9.537576174129885
7.444250957308157,0.119698870228364,-0.20408652768013213,9.560580545623562
7.445409350491502,0.12396884845868576,-0.19686610612964858,9.550580856591566
7.464860853731188,0.1057671496784013,-0.1946534297544298,9.554447744843847
7.465955534737231,0.10495767837562339,-0.1923581834011819,9.552830288375544
7.485517578116177,0.1024294936944352,-0.21101290670854317,9.55855296093549
7.4856086396458075,0.10634179052278137,-0.19875768490681497,9.55472673851444
7.505063091349497,0.12531277474393207,-0.20725582567534648,9.550058440201425
7.505201501915926,0.09377949629479637,-0.1830515488993453,9.554976874729023
7.524681764891435,0.09051253302129565,-0.19890733191610688,9.551302288510591
7.52504662461494,0.0883586049946993,-0.19814240193520027,9.561252062638363
7.546209425148368,0.08192929547398003,-0.20695278291303246,9.553534879604314
7.546237254396892,0.0945691342982748,-0.19053098428459117,9.568566104339741
7.56594658513961,0.09588780863540741,-0.19711464074116603,9.555048874466047
7.565882141655322,0.09819862620355084,-0.20104600304675424,9.548274366713677
7.585884553314648,0.07674429513958651,-0.18988402379726846,9.571493638431582
7.586589915445168,0.09032201741837381,-0.17815803563268387,9.541521435479101
7.606297828476841,0.1184827325848327,-0.2197509242575449,9.547694452087432
7.606121107487028,0.12314182970008754,-0.2028110039959186,9.556955094788126
7.625855975286356,0.11505830806231837,-0.20651353360575272,9.545783332819777
7.625686206088597,0.09821925359803119,-0.20713397038158796,9.554615196886843
7.645655219215831,0.10339052990330219,-0.20478614160845515,9.56544536909632
7.646282453518201,0.09164830586595334,-0.19766936227122367,9.550236519019164
7.666181182071529,0.13083382296098425,-0.20744278178015682,9.555143426715844
7.6658827206365725,0.09246388522923989,-0.20475476073471457,9.553166117460153
7.685848552658433,0.11847348937793319,-0.209727163398769,9.55829390941739
7.685475667516991,0.10400623221729548,-0.19509298079463017,9.570665015397303
7.705512237670162,0.10846085020175975,-0.19538664160639868,9.560004348353072
7.705014298447416,0.09107011549540894,-0.20073130119610258,9.539128098880306
7.725116638835428,0.12600828968694294,-0.21094391643724358,9.545758006208104
7.724604627183509,0.09820314121820516,-0.19786023685784115,9.580443664677468
7.744729230403475,0.10178332889343929,-0.21730008442328883,9.559321975547244
7.744187045687823,0.10940927486224766,-0.21250261876611498,9.542394265664969
7.764457750446854,0.10710914601991221,-0.20896660033072656,9.569263792873032
7.763754338333903,0.10246277255030903,-0.1958968037144604,9.58054573917835
7.78402413776389,0.09649354278016443,-0.2071074613713909,9.568487982603456
7.783345028512966,0.10310558781097325,-0.20663913193569447,9.535480996854352
7.803700241442014,0.10044677696923161,-0.2063429781556087,9.5529035072704
7.802941263883463,0.09227559524141118,-0.19625490719986358,9.566333367817768
7.823356499597396,0.09726264608560597,-0.2053676854787287,9.548755622989445
7.8225579818271775,0.11549286412453497,-0.2051838885294537,9.542292802094007
7.842928978491368,0.10216805683972233,-0.19846866589739787,9.543357394988677
7.842752434597748,0.10085229670179595,-0.20659366317056124,9.555394337641907
7.863756625707113,0.08980887482964178,-0.1966868930803484,9.560386507601285
7.8625396815793795,0.10780972778307678,-0.21284266684243922,9.551242961919169
7.883365625958804,0.1263827331632789,-0.2191028552094637,9.555804265958836
7.882140919440255,0.09478276976454146,-0.19973201677703747,9.559201093792277
7.903048924600867,0.1052166121367602,-0.22221923614067826,9.549842693749259
7.901672576651837,0.12057566520609224,-0.20469102259699218,9.536058497945787
7.923208972355613,0.10893303994716129,-0.1994652726552323,9.556798283071705
7.922422835790238,0.11563200620305754,-0.19796349705185765,9.567419358385695
7.943288422832636,0.09185476518846121,-0.20297460184965443,9.565779685156917
7.941865540934949,0.11425428296990697,-0.21698663794662032,9.5461704352065
7.963339276875872,0.10932000836081295,-0.21606024976239055,9.554325096859694
7.9626619381276305,0.10127078281809614,-0.20552861288555035,9.560814947018542
7.983454795902832,0.10527559664552702,-0.19994910523969014,9.532007542917956
7.982119276785883,0.1022375855326921,-0.2206858276441051,9.54856625401025
8.003148593726944,0.11644712123030629,-0.21280784882457693,9.545758723046028
8.001699030455008,0.1188438396957405,-0.20346368444580543,9.550739533483512
8.022816646184644,0.10597440815769009,-0.193371719917191,9.555932964688248
8.022063305163094,0.09659667297319224,-0.19678610616849715,9.56635266289057
8.043565457160955,0.10712986449708062,-0.21043159151356283,9.55914910961439
8.041751042581964,0.11309342184514252,-0.2072888598157001,9.549246790184023
8.06393968630024,0.11999817780179027,-0.18703591547708534,9.566923541762645
8.06244852003861,0.10098684025548584,-0.19852221375268783,9.555472564993746
8.08376644281258,0.10080951999238646,-0.18317985440896314,9.562380077310415
8.082115230692338,0.09583599970305791,-0.21392241892674826,9.554205307739299
8.104709041658793,0.09035419639157374,-0.1940679989148225,9.56132464778406
8.103537180721416,0.08897728983255956,-0.19273957667986283,9.566550528760237
8.125109023484313,0.10644708788371907,-0.21752697494660106,9.548099631729967
8.123097912320299,0.102180238266225,-0.18000390842818695,9.572614598645247
8.1447265034121,0.08305745984722228,-0.19741751349218964,9.554119923623109
8.142627297195098,0.09288310426834763,-0.22402070673423718,9.548511035851181
8.164404600341216,0.1267237206084796,-0.2250309346283611,9.563964016008118
8.16221018872041,0.11240038920883773,-0.19694263389011982,9.553903808616337
8.184080971429573,0.1016431966548026,-0.19815706273471767,9.55303648091049
8.181795317568193,0.12297253231337951,-0.1977015127553882,9.544599361002117
8.203731276247762,0.11948269894841573,-0.20302497895928867,9.564908127969181
8.20130476908067,0.10541631724720528,-0.20047843788712907,9.55809920868734
8.223381751809027,0.08965575529048206,-0.21191581498226325,9.564645016600565
8.22089238535553,0.11552448432084565,-0.20220376360927608,9.560035557847952
8.243037438726118,0.10809841278750747,-0.19772014331802185,9.558880911507913
8.240454339511803,0.11313539105210962,-0.20959794219246858,9.54679121495541
8.262695507034351,0.0828807247331421,-0.19669338267599315,9.557701878344208
8.259978327133604,0.11209202087465506,-0.20677761610760365,9.55153861838648
8.282368526197669,0.08447697572668011,-0.18907649307482272,9.564666168383214
8.27955865537704,0.10269012202146278,-0.2113219020539837,9.540725266803369
8.302050788016114,0.10343673215719734,-0.18999022716298783,9.588404621539945
8.299132901786464,0.10106883439508613,-0.1949972638136684,9.557874137279073
8.321739895856421,0.08677714022070122,-0.18908312564369606,9.551470642860325
8.318658848822745,0.10607949379430794,-0.20405948461715312,9.559582369508378
8.341368997466887,0.11127135654431704,-0.1890450522012898,9.55365935191929
8.338178906328967,0.09439792217008258,-0.18839413812468392,9.566537100476985
8.361686380275124,0.10016071983440249,-0.19557089184480125,9.544616708628615
8.358904811073486,0.10157134045938432,-0.21084864431115086,9.55624873142141
8.381583805472289,0.11070877324489006,-0.20620455820643677,9.549311252566074
8.378573750710151,0.11326686165471422,-0.20411052428139145,9.546353034452338
8.402270066224357,0.11141113593585796,-0.20519090059775497,9.586668188604495
8.399489829818211,0.10806825949890328,-0.18051381761810661,9.565014670423375
8.423119244413119,0.11196958090121177,-0.1937053835415463,9.5563815014884
8.419401551609175,0.09770321119602456,-0.20257489237498627,9.543487157405131
8.442750744023412,0.1055479317443939,-0.19533758299935242,9.545225956459737
8.438994975437469,0.12586991540241993,-0.19705248257201965,9.555677649146668
8.462426191986813,0.11053230098909816,-0.19468981118260711,9.550021257883426
8.458513729593939,0.11302491955698096,-0.21815406824245237,9.559838213523735
8.48205345202539,0.13678843947037386,-0.1956485779085008,9.558600403017941
8.478080775328849,0.09749979273663835,-0.1826977698957215,9.547990761226739
8.501745454360437,0.10100515834529064,-0.18223583911290292,9.557743669771062
8.497648269613503,0.08324070336648913,-0.19991303099351837,9.552276351778172
8.521439159391427,0.1263910581110198,-0.20462848275295425,9.560495798395785
8.517161794654122,0.0802539242469664,-0.1995415320617793,9.559889345467038
8.54107031551894,0.09726064944927923,-0.21357028833259883,9.560949629148583
8.536717703223742,0.11870946269075436,-0.19888491287776935,9.558444922080238
8.560769142529164,0.11591749606424183,-0.1879056007410166,9.586448773732185
8.556277093999931,0.07269812704092456,-0.1971745389141037,9.559912425748704
8.580441709804056,0.10975084736916843,-0.2063635208642301,9.54166426065917
8.575797008732732,0.10066629944132846,-0.18974705646194945,9.555126690333651
8.600105024492887,0.10550800203090996,-0.20949656364223623,9.53431163963168
8.595342124474156,0.09570965679206028,-0.19821419413931152,9.543829988367767
8.619809839906848,0.11056187605428397,-0.19542249001339165,9.541965296564962
8.614896663721405,0.09164862705572381,-0.19393812593612814,9.557425263126415
8.639516512398636,0.09823164098428677,-0.2212565587993742,9.55236020421372
8.634444475249223,0.09525109627936158,-0.19498560225843214,9.579313550302782
8.659157504042184,0.1109886721850959,-0.18541434539472046,9.55163023792747
8.653941352578737,0.11230628773678919,-0.19072403463265258,9.542735620586956
8.678821688179939,0.10360985228744433,-0.20234374577531428,9.546853065469309
8.673578524056957,0.1269738322608892,-0.21249188094369975,9.560725313016356
8.699527126968158,0.11748682765803625,-0.19761602251048976,9.55670253769072
8.69402650091667,0.10056205237331532,-0.19708640790315804,9.545097481627817
8.719256071089932,0.0997017334207935,-0.21730765339989871,9.55884034722622
8.713542016862258,0.10179759701492092,-0.20200540659133498,9.538710112057515
8.738959150802843,0.11459500703353179,-0.19811166335670358,9.559347244729366
8.73304157376474,0.10561297710927191,-0.19306191124873306,9.547683919269316
8.758645086770596,0.11884281360543862,-0.20843994367275984,9.542298794615343
8.75343923946126,0.10639370536513142,-0.2024987051249738,9.549335828950989
8.77937737059585,0.106564952119782,-0.21639268639051223,9.541666985699017
8.77307665324151,0.1296948482895897,-0.20074096365573016,9.554347507783055
8.799077874677872,0.10213573208225016,-0.1994912272262361,9.571123440650663
8.792589124887563,0.105616612578963,-0.2138929514417984,9.543879008292112
8.818804137419189,0.11119935109489743,-0.2108472494366327,9.556166054502834
8.812141352583733,0.1007642487502445,-0.20032142356514498,9.54008977465472
8.838458671395284,0.1105599789278591,-0.21453671486632955,9.545809636643535
8.831632204646677,0.10472046415512636,-0.2076192144125439,9.54647870923314
8.85819003465863,0.11676995014428851,-0.2052388587304259,9.567592897263525
8.851159850402333,0.09350259443048133,-0.19887636257803737,9.546847539800888
8.877925147453505,0.11576951016703402,-0.21382638305536877,9.557532549829663
8.870676925023728,0.10456019882667715,-0.20429311713873546,9.565311026460126
8.897593768387088,0.10046454594605539,-0.1915485418356072,9.552116851942642
8.890150852967938,0.08679498699258927,-0.1963359251787524,9.554736350078675
8.917333212548613,0.12152474659981913,-0.2169711505393266,9.542376378017941
8.90967064649561,0.11375604836597318,-0.19507912171858044,9.564241326142271
8.93707239768885,0.09725332582007078,-0.18900062296725173,9.546618823448036
8.92919297912869,0.10522759900755214,-0.21317425242197716,9.535787655727537
8.95678598317936,0.11929982861959347,-0.20827511055242762,9.54541298982677
8.948637789315752,0.10733209478504656,-0.19273369622013858,9.571829454921918
8.97649824296895,0.0899888347796133,-0.2009331393271629,9.563476529704253
8.968172883570064,0.10209148360224762,-0.20198002494454684,9.550472290454538
8.99619364861238,0.10925118416724171,-0.19576962425917654,9.555149039801682
8.988040256793228,0.10709449105054945,-0.20677628325767405,9.571522610943187
9.017119999389516,0.0943964232629695,-0.18477949409550642,9.57272777235923
9.008049165552164,0.09321237072231135,-0.19957693863733503,9.533879859981427
9.036818382377085,0.12262016729022446,-0.21497823061078963,9.560325004295606
9.028345211246574,0.11691266606593521,-0.21356979596513653,9.550746383691575
9.057615828881204,0.10973648133460978,-0.1856483992442917,9.540371097616568
9.047950684975003,0.10359275943438315,-0.21113648352390238,9.55319931711515
9.078090089678298,0.10867482317370608,-0.20719528325306868,9.554045815034815
9.06856218423089,0.09590938148636595,-0.20402842870950638,9.557918929662627
9.097998773190966,0.11541249050396486,-0.20769296542052404,9.535415240807891
9.087940830032228,0.11410863819664746,-0.19410701089524568,9.56882870150925
9.11777655361627,0.07762762972226643,-0.19269919276960665,9.557941218397932
9.107424559759343,0.11011799661271847,-0.21019891351438041,9.55302057732332
9.137525403957644,0.11686247895730553,-0.19869886917714008,9.560129003510257
9.127474280426158,0.12344544881813473,-0.20804639621015855,9.552908630836836
9.158498727576768,0.10307448320144555,-0.18616737744158196,9.55306853068152
9.147149997449668,0.10080067157141412,-0.20598872981170818,9.549735428770893
9.178797605963394,0.09573164644043698,-0.20822205831835566,9.540738296452972
9.16776629510305,0.10435627269679108,-0.20506998704737267,9.555327926057505
9.198963201242567,0.10877994786459862,-0.19610809494640608,9.555816626438808
9.188219734052128,0.11025614522780591,-0.20469510353444195,9.559626934783218
9.22068346382016,0.1146947805965935,-0.19476760548581448,9.538747151539829
9.208572388496194,0.10456185551417467,-0.18088220311183784,9.546380146491387
9.240546949871119,0.09690937074441903,-0.20248947287104832,9.567038217325727
9.227990119248444,0.09648249483736857,-0.20665820611629096,9.542973218335481
9.26031391789572,0.12247443497987673,-0.20299642354569564,9.541870765005754
9.247320869693597,0.09073004777381787,-0.18523394375329527,9.550165824921024
9.280196611634707,0.09664919419163442,-0.2084188649975746,9.558108709505373
9.26672753911353,0.11251421041074566,-0.20691540771472386,9.551622756393899
9.300872604331696,0.1037630551564934,-0.19967778342168666,9.535043756810058
9.287162673702323,0.134236985155137,-0.21068245509004352,9.551940924424597
9.320859379628072,0.10775028043016519,-0.20372375857789285,9.565797327374039
9.306522629311143,0.10120576505995954,-0.205859600239834,9.546799371874785
9.340751549538838,0.11909768430475136,-0.2053673270250923,9.550227866849088
9.325813452837666,0.10075699890406162,-0.20390030861912625,9.561755605624144
9.360581557756662,0.09302734085853638,-0.1935103494403934,9.566208384982735
9.345189742764811,0.10784349912782998,-0.21655368555340748,9.544798136394139
9.380492804324199,0.109564805568891,-0.1868609727064062,9.563669110043412
9.36452992998554,0.1011277455806252,-0.21087896669405126,9.56075997206613
9.400425429604347,0.11967014050640797,-0.21463861101812903,9.554025113407503
9.38379345976911,0.09951343630004249,-0.20472411840624627,9.556099278588032
9.420167361425259,0.11130101264008685,-0.19159068090845705,9.547342283467177
9.403156564421987,0.09481858292722851,-0.194245877231184,9.55236237349525
9.440203642975636,0.11596135883994653,-0.2111825981847355,9.554448151711252
9.4224705750242,0.11513483249373531,-0.1964118243171328,9.56455279821964
9.4600920159926,0.09193778905334501,-0.1851358775218578,9.554979104012933
9.442205364166004,0.1031547890628045,-0.18616318985351044,9.550989308037666
9.481279280424355,0.09570256065923384,-0.18799528058622345,9.559209557211247
9.461801668990224,0.10266568123420088,-0.20655367072425201,9.538853476167375
9.501241592976726,0.111897703189773,-0.21577666448820546,9.55421831537658
9.481032036286003,0.09588266262303079,-0.20223597878598543,9.54860572428627
9.521236126901583,0.11027123010779456,-0.2145666967180024,9.554598567275432
9.500247051228547,0.10894392422261269,-0.20934058016781382,9.546011681970253
9.541265033995654,0.11923486108009974,-0.18930212572720628,9.550290213240881
9.519439265675079,0.10123834618625184,-0.21641934080782396,9.547176399760533
9.56137065151077,0.11684128185490732,-0.20655108668907304,9.549378955620318
9.538510666737084,0.10216625784611744,-0.17801941987397435,9.573417742582857
9.581469073906197,0.10115467018451475,-0.19177887094702464,9.55675961604118
9.55760354500146,0.0933546901645622,-0.20019774965073878,9.553087769263186
9.601554767415534,0.11365131084219102,-0.19864961352673552,9.567164336673802
9.576933004704225,0.1075619041841315,-0.19107857304157733,9.569415931288317
9.622923533730036,0.10979006832627096,-0.19696370642277353,9.542360183431244
9.596606603227526,0.09654472663962628,-0.20907165505077221,9.5410900581563
9.64330208888759,0.10600112067098034,-0.21248896657893745,9.55046997134288
9.616698018934208,0.09818757309713162,-0.20976040256831838,9.541269335427895
9.664304917982449,0.11583541831638335,-0.2229468195369165,9.55729560465695
9.636174038303462,0.10751469777879703,-0.20530633711599144,9.555824306553419
9.685837937742045,0.10822198155234167,-0.19109678780089873,9.557274336053839
9.655275711109823,0.10142568804069803,-0.19031908046729634,9.548104386216401
9.706234598017765,0.12372187423945748,-0.22320022428890088,9.547319339754042
9.674003392917083,0.10589583217373057,-0.19133375273250694,9.575887761178278
9.72672869099472,0.10144329915609913,-0.2021117270507989,9.561801841002314
9.692622668105612,0.09684898606672078,-0.19447932440647742,9.559500157296215
9.747827636008617,0.10151701910064931,-0.21646493352649024,9.543929945873385
9.712377371279693,0.11357545347480119,-0.2097603916351762,9.543257683561267
9.76902632816885,0.11047955083820599,-0.18812720882827977,9.558898789222711
9.731633330837594,0.10491298528583749,-0.19174769201823882,9.564165686499233
9.791242397737296,0.10158083892399315,-0.2012167895973037,9.560980135256635
9.751186284939338,0.10091768127888255,-0.19414135820931486,9.559006876377069
9.812752491951924,0.0970101991198135,-0.21611007735628898,9.566302035657992
9.76928552394452,0.08336928126481465,-0.19803801006821728,9.550563529781614
9.833984868776952,0.11024367912205471,-0.2098634129593476,9.553201912396403
9.787180573490922,0.09871950398467264,-0.19923979335760653,9.538520766608666
9.856408549971235,0.11033786296267144,-0.1988919289131401,9.551912683656383
9.80712778050591,0.10683666089654864,-0.19291925749972755,9.550502030628758
9.878858958559531,0.09688400207130743,-0.20724946142800418,9.543730610362303
9.824462138207831,0.1159149811168126,-0.19982398910429663,9.568241704018858
9.90154667060088,0.0876854088508791,-0.20529019450257346,9.542573672275473
9.84266079494721,0.12149105237233697,-0.21591446877773526,9.551525598754447
9.924145790704356,0.10094721779221814,-0.20919126691678921,9.572847119746385
9.859217290644443,0.082305272899698,-0.20300846404694695,9.552712004741883
9.946991751502726,0.10964914925820858,-0.2131092321413098,9.544089828297752
9.875230031304334,0.11259017207221719,-0.20995137660922655,9.5533536252507
9.970598504437968,0.10853502587974817,-0.20317417592751622,9.557993066089422
9.890420235074096,0.09358315412826552,-0.208759066233259,9.549715771878864
9.995583300941425,0.10397007053072979,-0.20846756133469974,9.541122874084166
9.905759572024621,0.11553922188177791,-0.20306732816266468,9.546194459814041
10.02173043879089,0.1135184394286905,-0.19429830992612154,9.574878492534614
9.918299078520736,0.0902305000604213,-0.20168000348361548,9.559295176301166
10.049236154109552,0.10303099853214435,-0.21007131867148857,9.55182284322867
9.928615026349513,0.12384824837684741,-0.21967420835426216,9.555130260377819
10.079862252123867,0.10977651394166923,-0.19444679763085534,9.566388036082532
9.935621566007285,0.08943286782710455,-0.20412457923616967,9.561733439408403
10.116391203058965,0.11274303127894987,-0.21828602514332665,9.544284622309348
9.936564289581996,0.10480082065225713,-0.21589778677109206,9.54197180310806
10.162988487159918,0.11632530186555212,-0.20482581588577406,9.538699135681698
9.926772860098101,0.10684701842204683,-0.18854766043943455,9.56291318294296
10.227134414352708,0.098649003599485,-0.20657951932660118,9.544826636952381
9.882866276134395,0.10171815867386569,-0.2147927354543883,9.532278292046033
10.346463693971168,0.12005269467832279,-0.21813346424291508,9.562067640401425
9.723765265080253,0.1320987492287907,-0.2169097368479179,9.548612315738096
10.78548769441683,0.10623011812533556,-0.19581159820732885,9.55898185447629
