Time (s),Acceleration x (m/s^2),Acceleration y (m/s^2),Acceleration z (m/s^2)
19.24173813366343,0.10463092399656465,-0.20185593340673874,9.560076912154013
19.303664525359036,0.1218346925484225,-0.19456363285133763,9.554555050722922
19.263326269469406,0.09280812824309549,-0.19945318582005903,9.544653444287421
19.321540877641457,0.1022494048393007,-0.2063686714087033,9.54961888017909
19.28485580670584,0.08978721071680677,-0.20851115291688188,9.53566785437448
19.34140621604009,0.09754768666502292,-0.2027914008419133,9.532357903688517
19.3074763159765,0.11499134352888665,-0.2198737961249325,9.54650308210061
19.360104303355435,0.11609842683239284,-0.2087196311291727,9.574106421793433
19.32821671216275,0.09552798097722741,-0.2000549594448084,9.550861282418328
19.37854443743061,0.10423536710660918,-0.21163398312800416,9.54447817860928
19.349248586408223,0.08943319421781548,-0.2033505014044171,9.545356833935665
19.398307298808845,0.12096885562277644,-0.22394440262308213,9.548635434157553
19.370382616014517,0.21051886399970368,-0.1964406129458114,9.556615856768175
19.41772021893154,0.36980418519969843,-0.20400838637160007,9.551871121209594
19.39198949045268,0.498969484516423,-0.209109805861542,9.544185229247942
19.436600169856284,0.49102678939587985,-0.20084643910781969,9.54585626778714
19.412420820867602,0.3696695894575361,-0.20028213260760178,9.54078860572777
19.455435379714064,0.2610761090790814,-0.2162252365492488,9.575050055664196
19.432764083779706,0.18721353969891,-0.1915849247253827,9.572508528629356
19.47425426501295,0.23383853841850905,-0.2069567719245522,9.568567851978033
19.45308029064119,0.24636708067630372,-0.194315593879452,9.523691998979194
19.493199652264202,0.12967125584234754,-0.1755935869056622,9.525361990641803
19.473358026435207,-0.04002779469068271,-0.1810082136746223,9.560065535821105
19.512192904408153,-0.14713721036695948,-0.20156230739121364,9.55468292067456
19.493581583021175,-0.1769379178893584,-0.1833262158133836,9.538001635282292
19.531168428985563,-0.26277910263243714,-0.16606306780079721,9.531922405789848
19.51366714090377,-0.3275677566147727,-0.20928324197323164,9.544132544195557
19.550221332905938,-0.295608667216683,-0.19964124131392746,9.555718665133545
19.533882754211675,-0.2126710851875446,-0.2000806034480491,9.547339780025796
19.56933964573632,-0.21629378136917204,-0.1833100972356666,9.525069112337453
19.554920829188266,-0.3210835114465932,-0.18299271625073482,9.531162497217734
19.589474915370694,-0.40340919200994274,-0.19075525123993467,9.550165414380368
19.57506055333919,-0.4231908826626316,-0.16925293349209872,9.53731739191859
19.608618144120552,-0.3572490826179954,-0.18177513147795762,9.554484665999457
19.595041818625106,-0.2374357806022441,-0.20144420518345516,9.54991227265766
19.627804197324416,-0.17501558784039473,-0.18927808134843807,9.53111179801937
19.615008392030038,-0.21981321968116022,-0.17604136470123063,9.532528163516957
19.647786132777057,-0.30506418403477736,-0.1892693104795151,9.574084257514887
19.63612572729153,-0.2573873408231329,-0.19769575484925167,9.568049097879397
19.66717363830499,-0.12747867561820347,-0.19265802900374984,9.54502961471739
19.656070495636893,-0.01589126423287004,-0.18574168483427536,9.541211021793645
19.686693038095935,0.0666972488701976,-0.19553901639198643,9.562858385459023
19.677160061270854,0.13582276952379338,-0.18435780622611272,9.560777141028897
19.706611809102878,0.14084625380648771,-0.1858373385245229,9.524507266602424
19.69706038951623,0.25761799811333264,-0.21408773545500984,9.556849147707787
19.72587671902113,0.3563877931256536,-0.2035453121779568,9.56077054947309
19.716921327397305,0.47749951507053284,-0.21098814392047324,9.561505980992047
19.745205827048956,0.6554513395220505,-0.2252356828291199,9.529363172549408
19.736838399740385,0.7445928689336891,-0.208991630297597,9.536116766481934
19.76447102011917,0.7319174899135755,-0.20351098478775562,9.544064366904605
19.75733119494037,0.726616888679533,-0.23575656816186008,9.535076067509564
19.784997686731714,0.9047263785956264,-0.22563958632711395,9.546765690984483
19.77754966277381,1.0963896490593412,-0.21106997003975142,9.562227241259738
19.80427915423553,1.1783583109416302,-0.21572923672321492,9.53425012784735
19.797368077206666,1.2311697987765156,-0.22880822642442825,9.54027082823974
19.823637446217457,1.120222720400876,-0.2251678957184749,9.509495121812899
19.81718827836098,0.8644912484300352,-0.2065281302304825,9.540904703060125
19.843415034966633,0.7108578195779387,-0.22144179237742675,9.578992522837382
19.83822313464166,0.7089367349980247,-0.2003141370584185,9.546381570499982
19.863274943897867,0.7143172356034228,-0.22156927944910534,9.55323233898098
19.858004986057498,0.7305900783432173,-0.20446171421771225,9.551752845810062
19.88263849371913,0.5877592725806845,-0.24664845604777805,9.543821311884702
19.87782999092474,0.4667395280561301,-0.19755136309853402,9.553400380651006
19.90204074372656,0.3510902908737915,-0.2006549168718727,9.510624585280455
19.89758182991423,0.28092281164097105,-0.2009313126469765,9.571576742352233
19.921476977126826,0.1992047013521187,-0.1593483641882296,9.545976018156844
19.91742368609973,0.029749323128170916,-0.19052034066400156,9.538447260857948
19.94091440759441,-0.08418015522821479,-0.21219164579805475,9.563638134267407
19.937216849284177,-0.2208220679901364,-0.182144050541036,9.548243380989044
19.960292288162762,-0.42772567572413445,-0.1787144929038641,9.54952318918638
19.95696115106209,-0.5481246297879763,-0.16748264626115458,9.538477548482897
19.97977147217399,-0.7051853056251941,-0.1570431583644576,9.531220710983847
19.97667444142552,-0.8687840726238224,-0.17355466996594546,9.561303028112729
19.999764351748087,-0.9764339943924587,-0.1793703962610222,9.550740009573262
19.997652644246617,-1.094473701178404,-0.14497080280767427,9.54807271038656
20.019561910584137,-1.2286695593921766,-0.16128354304822337,9.525545324949672
20.01734988323281,-1.4141722822912957,-0.16490575616360614,9.55667221286871
20.03905111628506,-1.4128383977087624,-0.16505775135617926,9.549335356717839
20.036991639191978,-1.1175313441763992,-0.14739045528412129,9.573723268983239
20.059024522425887,-0.8792220004404695,-0.141558105717173,9.534562104323546
20.057801658852902,-0.8531960002509918,-0.1641019572736472,9.5195573232673
20.07928477215111,-0.9835006159734091,-0.16637920782608606,9.533520441930943
20.078822215835846,-1.0548214380751673,-0.17506894541243098,9.571340151995933
20.099206015673268,-1.0381556601948074,-0.16644184309824653,9.54548854352202
20.09847346328728,-0.8775715537058991,-0.15608850828755022,9.53303215053974
20.11872867674773,-0.7044183153246844,-0.17646668764043769,9.520079433808645
20.118219624303944,-0.4872285734532202,-0.20736254091771444,9.56688466287099
20.138222526868184,-0.3582687283886879,-0.14331068094982846,9.566870374102157
20.13877338538186,-0.2607867077353986,-0.16308719871162342,9.52436837193936
20.158768893127373,-0.11979196789064543,-0.20857863749152109,9.565895156085075
20.158644357392415,0.08873288107572183,-0.1884128057106436,9.572303851758473
20.178166258187034,0.2120627455772074,-0.24496979342300282,9.518911552478537
20.178299442293753,0.36476741181017164,-0.18224251633852417,9.525345039222929
20.19769096239868,0.5760217975748312,-0.21628530402945523,9.541870927871878
20.19805939721782,0.8644033718015309,-0.21487881501537595,9.56347816817494
20.21717013918511,1.0586202053840157,-0.19685411762099314,9.557437521343559
20.217819506103478,1.3041529816868662,-0.2412356148060808,9.539706466760872
20.23669776682761,1.6102414608571436,-0.24473936310486352,9.547059837526021
20.23743998135428,1.7042617604557295,-0.2455022691385497,9.523189178422847
20.25618647795975,1.7694581937597396,-0.24459009656905906,9.553668910410693
20.25713378145228,1.8620212598311643,-0.2445092189536013,9.540350329463699
20.276262349352987,1.8742134303404854,-0.27827023999865297,9.544345156507312
20.27796730872015,2.0524833638455804,-0.24684721304836418,9.546776977054924
20.296610350672275,2.1267650429723948,-0.24319686656559344,9.542264974706397
20.298810411372276,1.8944200981241508,-0.2229884492694203,9.531236883301025
20.316528129530624,1.6330721550169371,-0.2412289966855079,9.579056779712161
20.31846893355811,1.5378399860530472,-0.27577640756200517,9.530918234677285
20.336069682559724,1.4541145104877387,-0.2041869639102982,9.54506945449032
20.338110995871716,1.3696054732220335,-0.24348179474349652,9.555136401842672
20.355552467821187,1.1434508293787704,-0.17619433028004572,9.536593503930545
20.35779917829276,0.9057764034961455,-0.2266016833840516,9.552090999680756
20.375084957697975,0.7650101326513796,-0.21977148219221795,9.536550180787055
20.37750352676029,0.6199058762842489,-0.22066506045954326,9.544152267408638
20.39464462738952,0.4991245393020414,-0.2120360923748131,9.547667395219746
20.397229866338076,0.23323217144700367,-0.19680820262418627,9.512422350057065
20.414127216170225,0.07545182591036419,-0.1375020832220967,9.560863251449417
20.416874223995464,-0.23022467846787922,-0.20238406692238572,9.559599778139239
20.433655080177616,-0.3887467714245757,-0.2215291260856324,9.521960606331904
20.436583232262844,-0.5935493132793757,-0.12380632761046688,9.57714500885804
20.453196834485485,-0.9356925052536978,-0.16048489916430628,9.51928748777636
20.456273752783204,-1.1093196969985102,-0.15909059882216756,9.541694379501099
20.47270796655815,-1.1715547029823032,-0.15598493350824194,9.548680822694655
20.475913975503374,-1.591466997774908,-0.133382834848931,9.533002313844019
20.49221113470978,-1.9700439674007963,-0.12673069838651746,9.54767681777945
20.495583686493863,-2.2317225352051047,-0.11177453799188426,9.57797724850194
20.512331849654256,-2.3072160971587277,-0.1251493918198582,9.551412296163015
20.516448134327813,-2.4560860514869147,-0.13283009311211094,9.56457652405894
20.53216636000131,-2.0646745295708793,-0.12763469379791473,9.565227597846997
20.53599940366506,-1.5752881053404493,-0.1234194790199666,9.563449352588789
20.551794002607537,-1.3915176948853647,-0.15984003612537862,9.507148086679761
20.555725696280454,-1.429587139527336,-0.1513171598592963,9.544587295288615
20.571264084586126,-1.3888738473063995,-0.14491965027330578,9.533446398094473
20.57539914960165,-1.3913826962659805,-0.14060443408231832,9.521774563852984
20.590814993005853,-1.1104241512795539,-0.18272819828670978,9.584234800681118
20.595096088991347,-0.7908565130211369,-0.1256016656909299,9.567715080334597
20.61036327333356,-0.6725991405219771,-0.19599695772117956,9.552828049175965
20.61479656795933,-0.5821003415658997,-0.1746893716969062,9.491622877335121
20.62985193704016,-0.38941626363828463,-0.1911553700524865,9.538617820500304
20.634448055368424,-0.16259655299305106,-0.19085927850657464,9.587353192126436
20.64932227274319,-0.03389538055544987,-0.15005108090465802,9.53593244043672
20.65430269009895,0.12413313254735206,-0.22174355703049514,9.538162481154524
20.670868798912725,0.4019779205865439,-0.19449425571074896,9.56744003344139
20.67574572465111,0.62735165461345,-0.203614926753762,9.521706402562822
20.690492042387827,0.8602876552543737,-0.23578897217798653,9.526369302851109
20.695431722993586,1.121997408518004,-0.1906738781064692,9.570134129112986
20.710044167233356,1.2714002178841846,-0.23144614464697263,9.535509832292908
20.71512731990498,1.5251686079557933,-0.2640277202828621,9.548596443345197
20.72959259384196,1.7426372282338918,-0.24384627507676568,9.558390169525504
20.734801275635547,2.0658693898919807,-0.21463774853030146,9.547366549567727
20.74901920187586,2.255753181811062,-0.2757902974043199,9.517601009788928
20.755067125231953,2.3338128157694142,-0.2819266557743449,9.545682526175737
20.769747415997184,2.312655194546414,-0.2710771712090229,9.507968429892655
20.775028735305302,2.180909393490863,-0.23099312975057434,9.589259542630657
20.789252768542998,2.1775191511232586,-0.29102418160271715,9.566348894159947
20.794736332622573,1.9993393059166047,-0.256327425306201,9.540431049645594
20.808801527706265,1.7346042246698832,-0.21811413535403207,9.51576928249706
20.814427586467815,1.548768834772087,-0.21709319518625872,9.579282746638365
20.828278249938894,1.5252672900291735,-0.2530261389465908,9.54611746899025
20.834038266554156,1.3606946498171013,-0.24804800058555876,9.517837772375216
20.847868767573935,1.0338763483939994,-0.21875067053918062,9.539927993898221
20.853729219390807,0.800166064982611,-0.1941685550318758,9.549493196997373
20.867430238338915,0.7509464951664695,-0.21432719229088634,9.582213724270167
20.873413995604796,0.6880967675278367,-0.2132820354440956,9.528033764749411
20.886976080801936,0.5594351021629692,-0.21481441092322992,9.538211984351607
20.893022071540983,0.37549362050207324,-0.20099885414032537,9.533301312608987
20.906507637083074,0.07800473625578909,-0.22317960548468485,9.547722784541985
20.912704399588844,-0.0748588308805987,-0.1495895907731375,9.56847971281063
20.926072620182293,-0.3333371567748957,-0.23298212479610175,9.557516382460852
20.932385798755593,-0.4891970685466173,-0.17713751443903555,9.497538750471787
20.945628381945305,-0.711457842892229,-0.13167864554445702,9.586589693382821
20.951993885082334,-1.0338921762249367,-0.17810166619390536,9.539474125108804
20.96515219435818,-1.1444618676035636,-0.146823072054975,9.552752935763168
20.971676336975587,-1.2691620901111762,-0.1604267194007698,9.547741747782542
20.98471613822092,-1.6433757379315184,-0.12493526883499842,9.536582165425227
20.991358817073763,-2.0547402725077877,-0.14273227162481847,9.52542997323773
21.00420499671291,-2.2204360479531835,-0.11036415089530088,9.564163114954383
21.011596193364866,-2.364924869350397,-0.14176451107094684,9.540933229713893
21.024979030211526,-2.426382208693859,-0.14209494696097916,9.560945819928568
21.031529590517824,-1.8780981029020454,-0.11691649099881873,9.571962899582319
21.044963156613584,-1.4120303644871466,-0.1279063278423707,9.528188369324866
21.053852279096944,-1.36941096290674,-0.1720457392123964,9.533573581726907
21.067008347592168,-1.3322540045547113,-0.15559196554054752,9.54041534835105
21.07386731582032,-1.4162661775476046,-0.1287252228879543,9.55982390881199
21.086527584038052,-1.4521676948767452,-0.16798934444940877,9.529430050010117
21.09357847830494,-1.0584053749138438,-0.16062884165174784,9.557998566068056
21.106084404016112,-0.7050247391589716,-0.12708649436088174,9.531348737830802
21.114123335344072,-0.6166354110735023,-0.1685933597369025,9.53722699699589
21.126658830062674,-0.45606599902214007,-0.1784055009326825,9.55844343610923
21.133840339548914,-0.2679120821415828,-0.23288384625724218,9.555629071311724
21.1461625207856,-0.07235643755342369,-0.1386257061830771,9.511738270417569
21.153716671866942,0.04476864785412882,-0.17928461464155793,9.566006549451007
21.167179042915137,0.3845109290219753,-0.22011153253213886,9.541939286236612
21.175152872305027,0.6006221037138048,-0.18432334205143358,9.511449289294854
21.187578724537396,0.8205304581604559,-0.21255228122724698,9.553253708399527
21.19587342398238,1.1110100129802192,-0.20232381906601077,9.545295548422803
21.208546300836417,1.2328138499710979,-0.21502361475887388,9.5608650701339
21.216627217568693,1.4676211031447743,-0.24747362697785064,9.536702389077137
21.228308786542247,1.692003215832275,-0.26301285599774177,9.552484385629803
21.23686026758784,2.0870174159853887,-0.23219745036438466,9.533365809068911
21.24905679626482,2.304674040419024,-0.2554560522775416,9.534705648326462
21.25674394099204,2.33291307705172,-0.25368766084802075,9.533048475495486
21.268521102088606,2.2880435385734725,-0.2637982541722716,9.52105350086924
21.27641167771339,2.214790324876749,-0.24847327608522857,9.530188942359528
21.288085587236488,2.1910128564482187,-0.28373855427781935,9.544192860721864
21.296104030505454,1.9513946249531284,-0.22635658223328345,9.535137863179473
21.307604006670438,1.6472889365549492,-0.2453796276894723,9.533103647743376
21.316221737482884,1.520613296275476,-0.2301912933039881,9.5529588005775
21.32835787128097,1.5280390788532154,-0.2539127873949521,9.57595067456476
21.336307009720635,1.4423269042269373,-0.24684158303930526,9.479598243836474
21.34785265033933,1.086183907630585,-0.22934859990153283,9.539851040376737
21.35592527343037,0.8710518860901098,-0.20339619781105173,9.563469095496892
21.36738849270114,0.7559856916614379,-0.20011670198969359,9.546443989803137
21.37560580346439,0.5714397839834309,-0.22142674186267491,9.553865105204187
21.386954770460232,0.537878743018427,-0.2101261290652151,9.520915774078276
21.395291899578883,0.36092682014217886,-0.1969615997877791,9.550150772702072
21.40647956465185,0.06054203352869109,-0.20011877009371473,9.513677599676175
21.414863134688606,-0.09305679916052984,-0.13893834529408508,9.578880216957751
21.425975817294436,-0.3023859213087553,-0.22896769402644052,9.558537798929182
21.4355497268228,-0.5083982179846098,-0.16911068627873807,9.507729760588907
21.447821107213418,-0.7595562457052316,-0.1457829829317807,9.549167947708526
21.45625012357544,-1.042019145508015,-0.1808723441045129,9.532830202689015
21.46909237519494,-1.1742766729971175,-0.14843659441353582,9.557569564297717
21.477780694936126,-1.3907314915895086,-0.16620003458202517,9.519822072432271
21.488847682226226,-1.8702786446868305,-0.10745983627274922,9.532676333033002
21.497425414358748,-2.1898906615558817,-0.14715904197225732,9.552647298617135
21.508428727152566,-2.2565565688960083,-0.11543108763325169,9.575529710090409
21.517019531201807,-2.448609131138318,-0.13338030667840559,9.51566589362775
21.527965552952033,-2.2870394452810427,-0.14925719084299507,9.580247252050157
21.53667777073237,-1.7018931340578423,-0.10733585709619871,9.57019271311423
21.547554318741472,-1.3938870358420625,-0.1437884245889083,9.513716926236182
21.556329576814544,-1.3662825098067084,-0.15885276502887427,9.517474979804984
21.56710818158874,-1.332943239433097,-0.1556926062878639,9.56901974333875
21.57594357594423,-1.3468205493865992,-0.13669829993225682,9.56387480958691
21.586663096860605,-1.4181547788453872,-0.17981376693079176,9.537364908956445
21.59559437209137,-1.1245390371843325,-0.17049852468782706,9.522545573469547
21.60625590204421,-0.7163271968591949,-0.1526729483177287,9.564310375878128
21.61524786375878,-0.6044500989702689,-0.16384423215427527,9.508989793757758
21.62584937374451,-0.4740504028765288,-0.172820888848496,9.515501000411072
21.63488411307353,-0.2538575181767442,-0.22103062881254346,9.576332741051825
21.64536724195908,-0.08487792775634112,-0.147472364283271,9.513316525422415
21.65450534098821,0.0354212472028598,-0.2069235675545162,9.527616147018064
21.664958642923818,0.25800105731260947,-0.23298010943492795,9.564285970583882
21.67416712214077,0.5260902030627689,-0.17520073611333367,9.541469010700864
21.68452679935408,0.7199588058971167,-0.24134838676060982,9.538220814027303
21.693993024519788,0.9871746363170929,-0.2189480538638431,9.535786128342746
21.705930541613036,1.2098775763959952,-0.21756545825954055,9.547389891251141
21.715442724932682,1.395776569775485,-0.2690659058810308,9.53603165614592
21.725685882819633,1.6806592706016856,-0.27965838918718566,9.556230143713861
21.735073994101477,2.102571365953242,-0.2300460466153432,9.5634750468616
21.745277745141685,2.3128507220177656,-0.24923178843603364,9.533885888587017
21.75465774039413,2.300287694255184,-0.27698365720391976,9.52854905036351
21.764824149534665,2.30340133613501,-0.26421808014567794,9.561008075432706
21.77430987479856,2.1483682529287917,-0.2620725446713133,9.544597601907563
21.784417386925142,2.249679644035411,-0.284584933065417,9.553254474895915
21.793963253215594,2.0852255967593156,-0.26551780868094504,9.527359204291695
21.804007657160625,1.719427011015194,-0.1994111908020851,9.552241024182845
21.81355368703763,1.512534923349209,-0.24209783436197882,9.549746453555246
21.82354579506131,1.526497208130718,-0.21878841124253492,9.57149184277982
21.833203996963537,1.4782999478336858,-0.2383076041035994,9.53344296269544
21.843141203901485,1.2937188596639395,-0.23572603791863025,9.486256566741767
21.852853537494873,0.9804918087070206,-0.21992812151825283,9.564569728621406
21.862739194129908,0.7942600084903789,-0.1867675250966911,9.561418813847029
21.872484384566928,0.6639854171526745,-0.21613562733154432,9.554729580852188
21.882260442073814,0.6021175021401509,-0.21792449673560088,9.561542011340316
21.892102443227458,0.4352327949690323,-0.2123845652134306,9.524409930477248
21.901859022345565,0.19629033010260583,-0.21048598095828147,9.525585019740953
21.911752929517142,-0.017130232616056056,-0.1610108766034562,9.523183884065382
21.921455400692416,-0.20653449939303062,-0.1687067470536498,9.592164389727841
21.931390931300324,-0.4157837982188091,-0.24112874090816913,9.524172730432872
21.940976963402946,-0.65180836261349,-0.110249281825611,9.543000043151924
21.951006481039236,-0.9387163758717016,-0.17837620788630007,9.544823653335635
21.96056598156245,-1.0731841271635263,-0.17030922835598797,9.558047125914218
21.970670920564967,-1.158491367694949,-0.1864162465719382,9.548656528996005
21.980129271768952,-1.5471987211024913,-0.11867291885666016,9.528157407294389
21.990468690173444,-2.0285744377677877,-0.12206555062825135,9.522846052840078
22.00078037321918,-2.208518465057355,-0.11203303548484028,9.582388222904521
22.010913747978837,-2.29580815127911,-0.11058964573842503,9.545313778779827
22.020332894568124,-2.3979801678997346,-0.14319312234327772,9.552367267598633
22.030539113703203,-2.0860401767822094,-0.11486486558036141,9.595588876368367
22.039803586482915,-1.5742965060213463,-0.1269965737117634,9.540443099525723
22.050690275384397,-1.3767153365164426,-0.14333700209644465,9.496691658617724
22.060553857827255,-1.3789521310854167,-0.16508628025266617,9.54351755304972
22.07075000852397,-1.3215889834039976,-0.14884516784217286,9.557064465430287
22.080026656464323,-1.4279933644949128,-0.15465007558787572,9.572923697015147
22.090834166449717,-1.3239817219633692,-0.17261073359318052,9.534922619412665
22.10077625285461,-0.8855728944417458,-0.1218907294362114,9.515781183257003
22.11092337538703,-0.6873054127622164,-0.19810487363812848,9.555932856515968
22.12026247420916,-0.564290925371715,-0.13165183815364415,9.518617661875325
22.130609806971968,-0.37779297921392213,-0.21471911558453188,9.60298629965844
22.13981397465772,-0.11446868219250002,-0.17616286911563528,9.546910455857324
22.15110300811059,0.004590299990310822,-0.1614337636203491,9.50616974884827
22.160468761588167,0.2517558825470125,-0.24271293748614411,9.57172538668779
22.170821087064493,0.4541022453577069,-0.18269967892992675,9.524389153154871
22.179996641246742,0.7742935988652303,-0.22536919058578542,9.544079334824104
22.190409009229004,0.8950735052748868,-0.23358361976004027,9.513127754756997
22.19956106233524,0.9855579343557506,-0.20226619358299855,9.536041634789115
22.210153699926668,1.2126691309533417,-0.21132992179080753,9.567422182118973
22.21918947821322,1.487341636779805,-0.27317805064614437,9.559161805358483
22.22973241197366,1.885885761599397,-0.2562482792216187,9.543187029503482
22.23874118068585,2.2567952272856835,-0.23150510846590705,9.552730917987313
22.24938397492896,2.388734620979565,-0.24822932871950154,9.519640680948033
22.25833705240193,2.2938054072281524,-0.2690650733459262,9.530101369160498
22.269033994859402,2.261739767983369,-0.2494509915524943,9.52180614914742
22.277927606051325,2.1370706252390987,-0.23332569441679377,9.588218104846156
22.288623211523337,2.178614967843484,-0.27557789667708454,9.565266688182637
22.29746106540474,1.9663085200866286,-0.24359567508312058,9.519158039805495
22.308327741419482,1.657144610228393,-0.2213822494817408,9.535610361834035
22.318022259572572,1.4968306991289688,-0.24373240447575426,9.542355816833531
22.32888770870586,1.4615373206212772,-0.23659869604237013,9.576262734133348
22.337654918391923,1.3805229673600965,-0.2538441400068257,9.484125982882839
22.348525030893725,1.2041545710517294,-0.23215962640742413,9.498852969319232
22.357281382900663,0.8898022431288787,-0.20763695674496743,9.601281085482785
22.36899914437902,0.7035733747981441,-0.2049897884577063,9.526119706528219
22.378194272378337,0.5789592517353324,-0.21825798708364447,9.567558733417245
22.38992510167144,0.4966281445452143,-0.19739980528811518,9.53974874203487
22.398248139812974,0.21599400857474252,-0.22278126632386527,9.548057727228466
22.409831971608895,0.026873125258738133,-0.1681316234678544,9.51567800889118
22.418934407634577,-0.23342725249977186,-0.19294515191624043,9.582193731680153
22.431081154907858,-0.48195856405551285,-0.20683014225251128,9.51321383983965
22.440662209301237,-0.6607113400649448,-0.12073712122905468,9.583603393712256
22.45176995557505,-0.9417563655521458,-0.1834008523862171,9.542760917877237
22.46133071560413,-1.0752512778091725,-0.15729542745800468,9.5389284214638
22.472076977326545,-1.2057263644496863,-0.16149198485652655,9.53409604927485
22.481027258865623,-1.6859253504537963,-0.10151134980478381,9.510692916921002
22.492813796968456,-2.1261212098784736,-0.14644057793156656,9.53742685467645
22.501350610988307,-2.264809168955519,-0.0968150458197481,9.598925664519664
22.51242905954959,-2.3543351946230255,-0.1404001627595488,9.53217640389851
22.52110866268625,-2.3960589946029542,-0.1337548326712182,9.53867212869912
22.533035141290654,-1.9029510956300952,-0.11619187880047442,9.582766005801046
22.542068349453988,-1.4500708860998974,-0.12244535996424788,9.554819739485259
22.553816075870447,-1.38186086435521,-0.14184216950784964,9.515858154705095
22.562010986045365,-1.3732613449956204,-0.1550064911754508,9.5882101648279
22.573393391249514,-1.309137345067279,-0.13574202774731794,9.55668769995533
22.58162535269157,-1.415710913917679,-0.16125518531896416,9.539251952254808
22.59308985590238,-1.2789413508152125,-0.1542534276566932,9.535686205953139
22.602191876939482,-0.8583192311594051,-0.13274623657048168,9.583658318756099
22.61460063227498,-0.6307482138958367,-0.15855524064420695,9.546197316261157
22.623704263131575,-0.47721034025982767,-0.172734341384676,9.529152287991003
22.6353104723178,-0.22195675914580856,-0.22279748847210223,9.637913545197637
22.643297279004006,-0.056459128294224496,-0.15324721123150017,9.51676100936579
22.656048618496545,0.13464987507360934,-0.2307203290716051,9.527638071464452
22.665123224061574,0.3270437480866175,-0.19920133236032497,9.552112228743582
22.67633022697353,0.6213473634616825,-0.1909612558275897,9.510696496092187
22.68494168836167,0.7336270929394565,-0.22746636275669802,9.532729920905002
22.697066271277276,1.2574048689319082,-0.2055934079655042,9.563058220867186
22.705923140672986,1.435470785927134,-0.24058723049923528,9.512291966632118
22.717796922045398,1.2925248449993305,-0.23529212524869703,9.522239670754134
22.725701498745543,1.6718407918389246,-0.2813394306382226,9.612854588601651
22.737392584898753,2.1179543159339964,-0.23745468778146192,9.545652248426478
22.745328233641875,2.3120313870406997,-0.2693785181753184,9.5512194200435
22.757021075000388,2.365536389406513,-0.28857050298792203,9.51832651681045
22.76493700520492,2.3325760842831826,-0.2394717279713666,9.551929056072977
22.776578836588637,2.2174283309891396,-0.24675401103695743,9.548824865651254
22.78444697332102,2.2813394343189572,-0.2911954537698606,9.567160314244003
22.79619911330692,2.0391143138998196,-0.23153746691000363,9.527890448477955
22.804016770256524,1.6696274448906876,-0.2161943273662466,9.549317326939534
22.81589080674728,1.4643828334940339,-0.24254756798411065,9.542359508773037
22.823680613952963,1.450678465598643,-0.23599316073322607,9.57641617839284
22.835447686618323,1.4454992392765216,-0.23846133054969784,9.553937300995399
22.843174422730353,1.2757359505010561,-0.24946322440227175,9.480506396899179
22.855055321925665,0.9746958559328424,-0.22746580154248908,9.574944516006697
22.86323212602399,0.7591143344000266,-0.22321520476575876,9.566184989456861
22.875871010924598,0.6471276010633593,-0.22683106130596806,9.567850297223343
22.883275318115206,0.5313605090993487,-0.1996512110944099,9.55987825151866
22.895428439925805,0.3076607339272468,-0.221671880383589,9.542435256139994
22.902827888165113,0.11690330966935697,-0.18845400108232527,9.518144187316897
22.915326036199275,-0.09722542463935337,-0.1429724600933315,9.545345368505812
22.923677088420334,-0.35556494501484187,-0.2511734051072708,9.542176882169894
22.93557819168973,-0.5645122259541926,-0.1343335671888897,9.516739614066093
22.94312464009034,-0.811053080479522,-0.14633190295462353,9.556489412134557
22.95599186659547,-1.104576330420972,-0.1813334148914393,9.50671460417636
22.963874992017534,-1.1520958233426444,-0.16039638360557484,9.567921224236175
22.97579159218506,-1.3862442444401497,-0.1571880498104276,9.541363985130081
22.983366476468156,-1.8877522536649567,-0.10805573882039167,9.545509689277003
22.995438906123532,-2.207520347448816,-0.16133627210604287,9.534651637637682
23.00296284893388,-2.2491376038472843,-0.10505796707766976,9.579653201792315
23.015086613530574,-2.4252216492303296,-0.11517651405847588,9.532353156928663
23.022561654856197,-2.37209387548542,-0.12852945787480413,9.585709260149251
23.03472997786947,-1.8281579169052127,-0.10319046300729917,9.560624236736691
23.042092160945394,-1.4097225815230774,-0.1321321402047369,9.530162718817865
23.054337677456225,-1.3696807318519828,-0.14242803265091827,9.529234678421592
23.06164449587344,-1.3210597890282576,-0.17349168200408874,9.545001445862859
23.07444935210369,-1.3600702611840207,-0.1554984926331195,9.559005949371828
23.08388035041905,-1.375621813932062,-0.17700613790931696,9.57989492420711
23.096651118369806,-1.114651411832743,-0.13928371084672334,9.51167736391665
23.103866964925977,-0.7828497241957624,-0.16983385573254625,9.551987601615812
23.116212917263816,-0.6035002520707056,-0.1517119069995605,9.51443777389338
23.123307824935043,-0.4572564674339613,-0.18315444306868878,9.559117695567677
23.137110216284782,-0.10926026377028439,-0.2076867024270193,9.584609864350439
23.145207126042582,-0.0014603302762748764,-0.15325369200566574,9.504508253263618
23.157279099270045,0.14880710826127377,-0.22150206706021114,9.585532494854961
23.164604473710522,0.3755036589418066,-0.19315626962637744,9.554420424292728
23.177889288692654,0.6809367371493442,-0.2119648129763249,9.518386840239662
23.185247833350907,0.9314097211824193,-0.23523806427487462,9.533624276470233
23.197865415107415,1.1546053584267109,-0.21157971910485296,9.573095466432227
23.206003595568944,1.315472427501893,-0.2421818815817139,9.525165348067786
23.218135267266508,1.580323266605092,-0.28640722528021945,9.563901478497856
23.225525737634833,1.905029576908172,-0.22498678895830004,9.571077795888295
23.237762842503574,2.2035170052702835,-0.24776942595457072,9.534550779063018
23.245264229497156,2.282902804782852,-0.27350607759671347,9.530340596856218
23.258429370643803,2.360510175350429,-0.2636758635483873,9.52626844936611
23.265677259562207,2.3166053185372735,-0.2064119556838795,9.55952559189734
23.27928154176779,2.3320146726648714,-0.26038008525800715,9.553248696926037
23.287197362894325,2.274329932730764,-0.2525218368499435,9.545459574158723
23.299692768249916,1.9004009129752846,-0.24505434537113988,9.53157491661724
23.30683800386968,1.6172460207437611,-0.23391039176684622,9.552951340154191
23.31926610364302,1.4433057292080447,-0.23014051390031032,9.544106142550849
23.326922698898397,1.40762127962838,-0.25102543686719697,9.584727382269536
23.340072488180567,1.3527919391505974,-0.22197569856451113,9.489977093013083
23.34693286898067,1.094962505847519,-0.2151008872205088,9.516970239811503
23.35964212299562,0.8509192713887004,-0.22530845469868357,9.60549718548639
23.366578663688816,0.7077877302935365,-0.19963240867296042,9.555671650144056
23.379171835904778,0.6000844447136405,-0.21481805732064427,9.591443853654361
23.386452462801078,0.4383819384785627,-0.18450254787583736,9.530211444943959
23.400335267303323,0.13387810720134694,-0.2081412904181735,9.549503423192963
23.407797580230365,-0.08158099520504997,-0.12449377865722448,9.541035076878421
23.42045022558215,-0.2739109394159411,-0.21122870792248313,9.559127822745625
23.427308414439494,-0.44523908199034185,-0.20979363926020778,9.515809147095341
23.440050175778296,-0.6902656492182376,-0.0983753367207591,9.564739178206407
23.446923147341902,-1.0063146505722498,-0.16584587042439855,9.542297869621198
23.459611456202307,-1.1584816877802786,-0.16709195446538824,9.541416251578637
23.46678816819575,-1.270040385366313,-0.16068654267620036,9.546118775621421
23.48033632131181,-1.6898056844052973,-0.11828161151540886,9.536755937361939
23.48726946369511,-2.0712733259756337,-0.15413988483121052,9.546881253546013
23.50100572362823,-2.225617073293859,-0.10862147037034996,9.557244591991676
23.507748379170266,-2.3835658190130307,-0.13665938659110985,9.535318247145288
23.52180364935309,-2.535605251576829,-0.11341292191259243,9.551272907339396
23.529206924084395,-1.9823926496141504,-0.11147156825733795,9.588397234803995
23.54219896650968,-1.4242298616167577,-0.1517203292624674,9.505852394573004
23.548818254249174,-1.3154288246284973,-0.14404368876485213,9.489615997022494
23.56183496337049,-1.2679507462565218,-0.16511142484926405,9.545655103248318
23.568424179108437,-1.282274713249957,-0.13473935782233876,9.563562420701887
23.581426273726507,-1.376973893193287,-0.15790633415960967,9.5748785442265
23.58796119802985,-1.2439014100647032,-0.17489409972220715,9.543608174360386
23.601044748446153,-0.8769471812165743,-0.14557445410892358,9.53744317128847
23.607589231610635,-0.6599407465232221,-0.1682800443053836,9.567857408690303
23.620679348773177,-0.5211179054234883,-0.16642866195195685,9.500022770711722
23.62719945088225,-0.2948550570768923,-0.20812856893577125,9.58790066117562
23.640318430972325,-0.10644836525909682,-0.1410527141990114,9.55287038470827
23.646788205122917,0.0070685988711231065,-0.17711472645204,9.540114175564886
23.659881249091264,0.19298599115502127,-0.23843189029797354,9.578099051966252
23.666365949182897,0.4709057046492968,-0.17973791982182447,9.546658124483459
23.679520031397093,0.7049697848546139,-0.20345848710608877,9.543915229836047
23.685974673552522,1.0499570532780556,-0.22248225831396734,9.55476130674629
23.69915718843323,1.1662031578528333,-0.22250706215581528,9.520812643954061
23.70557470233865,1.293715744736805,-0.22861880385129849,9.547276863046871
23.718651779808003,1.668989687711312,-0.2721645802583302,9.593592247970959
23.725161351818347,2.07531440294898,-0.2512720606510359,9.54729456665748
23.738308724873413,2.2979015760316965,-0.21165602184339646,9.539920073870176
23.745415356343486,2.289476760479158,-0.26515055745145405,9.550791649262992
23.75908961062948,2.317668634168112,-0.2687442560666458,9.571094607787943
23.76515208757678,2.2511884094521695,-0.22400583189165732,9.572081253258766
23.77878491373122,2.33855973193782,-0.27602011027055273,9.54153334224056
23.785931578965034,2.278129468202053,-0.2886234782371527,9.516177148444273
23.79920548201259,1.9028340760523885,-0.23671145915725825,9.51240447277369
23.805623477887632,1.625851088710649,-0.2167761019620113,9.589918074251099
23.819837191161906,1.4249685057502373,-0.21694218801656306,9.541582839422004
23.826160892056684,1.4242525544588744,-0.26809924040322314,9.588092344834337
23.840455693044362,1.3392077719957465,-0.22398306816823912,9.492543834662138
23.84667542047126,1.0005435015453252,-0.19979667503282364,9.515390002213453
23.86011772729258,0.7694136390492095,-0.20783705718329995,9.582664510125875
23.866281097638183,0.6833131107324739,-0.20281820675273193,9.542867835859512
23.879698921971507,0.5043183034078139,-0.23028501957994996,9.579152999439856
23.885828512547015,0.3751086024112638,-0.21867722569674838,9.54296258575962
23.899332144972686,0.1594700337835001,-0.22094158381933504,9.540691415593182
23.90543833171015,-0.0013530369785524014,-0.1528445002933303,9.56198352994778
23.918970175915884,-0.2823074522158854,-0.19088556146337937,9.556920001355458
23.925045192405662,-0.4821983088189828,-0.22132948903923347,9.518727066361611
23.938563739692054,-0.7095347267742611,-0.09402360667788344,9.561888250554665
23.944568327540527,-1.0400244178653968,-0.16314844085797217,9.531538628269072
23.958170523601215,-1.194073696443164,-0.15000709803707757,9.55832893374242
23.96420183685806,-1.223758533193195,-0.17752034962312163,9.56266089826361
23.97782826409008,-1.6219026549333975,-0.11021500219020754,9.528395986809517
23.983797293672367,-2.0554138835689746,-0.14215945322695603,9.542228693565693
23.997480409060156,-2.2039666217827603,-0.14419807370457105,9.546271396290106
24.00327738334494,-2.289374228528097,-0.13111919559082463,9.534485227007114
24.017732646846905,-2.4911216090734785,-0.14498529531125712,9.52922294178025
24.024006997664774,-2.0911688506680672,-0.09196247771835447,9.606959448479602
24.037571678428463,-1.5933782291174463,-0.12714287854707348,9.561624218766312
24.043610219924442,-1.3117495916972817,-0.15078463749893667,9.488783129872392
24.057239258669213,-1.2795783690983633,-0.14061416049672062,9.529139621246578
24.06320241516447,-1.286390948162672,-0.14588329333278524,9.582687677646378
24.07688887114211,-1.3917919417396647,-0.13568638032623825,9.568496686150302
24.082777368538117,-1.402731179694068,-0.19319110322780603,9.545042542318079
24.096455918200533,-1.1199263352013928,-0.12280591194251582,9.526126213069094
24.102356646582702,-0.7392424032463091,-0.15690235410771317,9.573820292126138
24.11612032658442,-0.5255814625041648,-0.16844558606513987,9.492939442723443
24.12283783686905,-0.38285975224688,-0.20480476895683827,9.567836633788279
24.13674464934292,-0.1337308058469898,-0.17799478312042305,9.55677362870159
24.142535219763534,0.013439590083110851,-0.1491232692285648,9.530496860869546
24.15636630352678,0.1553429067398309,-0.22981985637449917,9.576369058532482
24.162151557879344,0.4577823235270726,-0.20902189376289446,9.553153855187023
24.17594869690957,0.6764863231221886,-0.2047730245490741,9.540716685515967
24.181699013698335,0.9541466200495462,-0.21049667442306014,9.556041894250871
24.195532281553266,1.1455433950791984,-0.21231522710788983,9.549866287539498
24.202023682991832,1.3476684209768497,-0.25094573071936904,9.544535565794323
24.217056986979426,1.6360582643008474,-0.2660229329986168,9.56832918741455
24.222919071430127,1.9538757956339117,-0.2304312588514847,9.527317049551012
24.236784867290094,2.227876149253806,-0.2314111444311079,9.538998121411192
24.242490724400046,2.301984404486208,-0.24903610596699433,9.528904080810491
24.256434744996138,2.286647551139535,-0.2411999366867289,9.550528801093863
24.262091479495528,2.288000338162052,-0.2382784025108088,9.544932962127138
24.276080626906168,2.3501782677283503,-0.2801086496674018,9.565400214178936
24.281652553452222,2.3738142013533574,-0.26092667438325867,9.542191882670219
24.295616222699678,1.9945255798931705,-0.2605335340157463,9.51203312202345
24.30126287617865,1.6864577966528498,-0.25026627532633405,9.56594542215876
24.315277843181274,1.4628850438648011,-0.24098164522486112,9.552221100263445
24.320866321287557,1.361108342567557,-0.23019946623100782,9.58202723613962
24.334920292097838,1.3614070032488321,-0.2759750760492504,9.50472624526481
24.34044632209135,1.280497247403955,-0.2129886141319188,9.505649251971827
24.354483227033548,0.9754226055947309,-0.2043252639589232,9.549763622961432
24.360031945705266,0.6927748993951574,-0.18037530127690402,9.540611308441841
24.374119727795765,0.5470033297100879,-0.22233370593956417,9.560547643316019
24.379647643307315,0.4677197671918615,-0.20558859671604562,9.55863841539993
24.39371286590491,0.21150205923133342,-0.20503848884291354,9.528798075955246
24.399219510812184,0.031090346473220187,-0.19558559885779364,9.521610656845501
24.413356907904948,-0.12678931863512838,-0.15104252241462426,9.551178692269886
24.418786934358145,-0.3899062224014127,-0.25858457810213276,9.553834768518072
24.43293811711831,-0.5860672904037066,-0.12150741495906936,9.534254136639468
24.43914704896448,-0.9242676668999118,-0.14595734576187544,9.556414906891192
24.45388729952059,-1.1528012454939678,-0.1785254223949901,9.52304841780207
24.460298862431493,-1.1705351942484568,-0.1601777320846546,9.576460286410393
24.475312976351255,-1.5867450730143005,-0.14447893608960224,9.509220471657066
24.480456644891397,-2.0074049987751756,-0.1493350580902159,9.530606192058881
24.494858522065694,-2.1612372151141477,-0.13121581341217478,9.563723289155757
24.500098078150415,-2.2785955579990174,-0.1280029651402789,9.573862754902274
24.514639760287846,-2.506588598584598,-0.12660612387310666,9.515800374327053
24.52078088306694,-2.341225463374329,-0.12301987264533877,9.57258348165306
24.535044614080217,-1.7087426976915403,-0.1257118263670876,9.573930500522588
24.54037399512781,-1.311866984011148,-0.13345692354026154,9.514222711192497
24.554675719948946,-1.2557061184208707,-0.1673730416908621,9.496115484735903
24.560060294489272,-1.3071631641800396,-0.16956094308328531,9.572831563539644
24.575316492345546,-1.4061864428567323,-0.14793251468582966,9.526343787935275
24.58053647600754,-1.4445480321909459,-0.16679064355285497,9.549314560291785
24.594968679016727,-1.118297881071378,-0.16011738754515237,9.532483127619878
24.60007638741317,-0.7566526267018872,-0.14557730947065362,9.560037710357818
24.614563205716387,-0.5671162682571221,-0.16560736617283453,9.521492480248689
24.619596206705157,-0.3645971885766379,-0.19412206145557037,9.55575899919845
24.63458575024478,-0.15678489303674242,-0.19465871768829582,9.55372862181881
24.64040875828939,0.004420954931296906,-0.16056010671021945,9.535324663703312
24.65470155259374,0.1859140476986119,-0.21928226722472782,9.552301318384433
24.65992631208115,0.41651855922114733,-0.1931066800199076,9.558711904847167
24.67429750231565,0.6672833610712573,-0.21629556966718408,9.530231182706903
24.67986575469358,0.9286040699397211,-0.22445245026743596,9.575549383448038
24.695096119586108,1.1113427127703963,-0.19846371672346433,9.548646535895259
24.700075035978443,1.3355685804183335,-0.2328945374024279,9.562152476829874
24.71460588907798,1.415301410469951,-0.24427524114242158,9.544340968047903
24.719579886472744,1.4291132962401096,-0.22762289827129906,9.518966044307202
24.734251069067767,2.6701728125028343,-0.22482832968350203,9.630026371660716
24.739218614841963,2.6755060143963583,-0.28047895417524266,9.471025038367111
24.753922008690513,2.2416237987985976,-0.30526300978989684,9.492913444000175
24.758796084072728,2.1868073124852727,-0.23443177249488828,9.543744653790743
24.77351328381463,2.2121436779973105,-0.237107195740822,9.586368767874868
24.778328282456844,2.371113453721277,-0.281041326816611,9.536723874540058
24.793734146596336,2.09950720220776,-0.26971109211985544,9.475310241294736
24.799094486928105,1.7083548935223298,-0.22911579409121127,9.548265446561597
24.813655102486788,1.498809993673428,-0.20294463757951897,9.59106706769614
24.818634187235226,1.350633803068551,-0.23730766041789686,9.577483684183251
24.83335533623869,1.3277181409518408,-0.25252523277813615,9.542645173447465
24.839185770922818,1.1731202233224045,-0.24291000403209645,9.473262639999994
24.8539406430327,0.9289564769141954,-0.21296723729132513,9.577265310852715
24.858816896956913,0.7526900381533368,-0.18485605655735696,9.554159734946046
24.873584442186193,0.6886718087932748,-0.24020086146011516,9.576364441848288
24.878410044154407,0.4574173524654253,-0.19844546217990508,9.541264109349438
24.893192059629907,0.2366310955780642,-0.21687499256340664,9.525635182071643
24.89790564103191,0.04822262283588692,-0.17634229573382015,9.563773458138833
24.91403822613326,-0.1345695512484908,-0.15380847675544723,9.528755758861898
24.9197721065731,-0.4150329095942366,-0.22700962765258573,9.528409984358214
24.93430376016524,-0.6353788288120876,-0.12241678534599601,9.531854553502676
24.939251338938373,-0.901161262829332,-0.14709011441640268,9.559978486910847
24.953884534703235,-1.1116529103330504,-0.17113120588797195,9.544561632990959
24.95909497776024,-1.1883583502191435,-0.15610325013159476,9.567597630998355
24.974622598575404,-1.5215593256916349,-0.13565772877314952,9.536093794809812
24.97955121483438,-1.9642112892947783,-0.11914203474793798,9.543306291280981
24.995338875282588,-2.275275206898477,-0.12179295842161522,9.553449564002296
24.999839102894665,-2.4009289060856376,-0.11725217236337514,9.564179076490293
25.015532596757236,-2.447704202767774,-0.1247319759859313,9.555677330572033
25.020756982324713,-2.252739558377893,-0.12351392129135329,9.570963131509757
25.036532593188532,-1.5836707501538843,-0.1326945453265389,9.560535594381962
25.041091096449556,-1.2662422865641918,-0.14136069848972,9.49396566074876
25.05610935213327,-1.2252714289150342,-0.15435032677456617,9.522270142103453
25.060653397773862,-1.3620944684419922,-0.12851078218169645,9.549186582975636
25.077266932301995,-1.4339877571356099,-0.13909952905843678,9.577279890637062
25.082475488552703,-1.359869023532327,-0.1721900420690252,9.539647089051911
25.09824375436197,-0.9566078839434309,-0.1298171066866775,9.51059626507776
25.103361423133656,-0.643751520353981,-0.14280537831190596,9.56555702374846
25.119562061206185,-0.4192406177550536,-0.16060196038641064,9.52056413690456
25.12550565945046,-0.19488779980304496,-0.2149910634131733,9.592653757878153
25.14150303405248,-0.03685568209500263,-0.1478312457485805,9.503472570681286
25.146102165261215,0.06423125961195889,-0.2090123814519191,9.556968530262646
25.161151616728855,0.34074720571618705,-0.2086555620375806,9.559121103638878
25.165689885340203,0.5943944668998798,-0.20079990266059783,9.55055477255312
25.18161770185083,0.8367707468445519,-0.24037438253048113,9.52782814378813
25.1863281769716,1.1009382183751584,-0.21157916192509596,9.545795603252193
25.201297718275235,1.2597167974372216,-0.21487294509325544,9.539266120893682
25.206199318534765,1.437406204239275,-0.24513885299222987,9.570718368737642
25.22209373712937,1.8147055867470152,-0.24210324874005207,9.57238742338059
25.226400451685002,2.1091289257625276,-0.2307506985043101,9.522369863112317
25.241683505920246,2.304148657008523,-0.2689308243215978,9.551581491265468
25.246061394016166,2.3231331130115622,-0.24569635735847098,9.535913791444559
25.26126931733759,2.3007507060899486,-0.24894646210205276,9.538320599812632
25.265606961677438,2.2810078565215295,-0.2831505610288446,9.520165514733597
25.28088678073787,2.3954281517784355,-0.25635893071339466,9.59952589995591
25.28522210221564,2.1406680947994445,-0.271938497051087,9.504057862123542
25.300520167887676,1.7897232709199948,-0.25822300312215374,9.510530344503445
25.30483495323312,1.5079355013993128,-0.23245020300797217,9.546442011293765
25.320148943393686,1.4076280943982271,-0.21199886694291545,9.608587261500377
25.324381894373122,1.355552116886176,-0.27154779308880206,9.542357041606826
25.339734205345827,1.3679054647338327,-0.21859610595792325,9.495947606045311
25.34398332324616,1.0489814248813711,-0.2109644021083056,9.551608943554227
25.359418432256927,0.822420151840618,-0.2112711655884651,9.57484236427592
25.364530536977615,0.6532152324581799,-0.1856304702093549,9.564072449713168
25.379979938298153,0.5327201502822557,-0.22427671990455383,9.551401594184721
25.385107634464664,0.2466925328796704,-0.21302683636497505,9.534410420322915
25.40059586528711,0.08328326835152708,-0.20592156825013053,9.525617201657951
25.404785697263666,-0.11613305216307682,-0.11709624641224296,9.578151845724944
25.420193634860087,-0.34150079577773357,-0.24575255481818026,9.547118404845321
25.42438961002665,-0.5448239009845797,-0.2010810509790022,9.528838557776387
25.43979254482432,-0.7505978611335764,-0.13260667888029357,9.565679698144026
25.444747311868678,-1.117861378062848,-0.17704390377549686,9.535233832309421
25.460426178883303,-1.1524644890076412,-0.15444270364308843,9.574510899470386
25.465314718834264,-1.3060307856484652,-0.1478011392018132,9.556068238323899
25.481187282150046,-1.7629013367985782,-0.12768124938525177,9.527079279538423
25.485050944458262,-2.1446050724426136,-0.1557404935691127,9.545930252085878
25.50064051011744,-2.2580142497377222,-0.11994719004918405,9.563392750820505
25.504594417648388,-2.427088373932086,-0.1244218961094929,9.53222962214483
25.520535916589058,-2.4322960301726515,-0.11410864495869517,9.53678092299486
25.525295151543567,-1.9021061657938525,-0.1291529270532048,9.589306233485852
25.541055914406105,-1.3694816455117584,-0.12325616091146686,9.512711711059021
25.545935838619226,-1.22962116496516,-0.15231407044540998,9.49216475024272
25.561496466689245,-1.2304055599791395,-0.1590810242902575,9.543944757789468
25.56552304452222,-1.3438501084014944,-0.1309381302275981,9.575541745549941
25.581143631472806,-1.4621527073917169,-0.16123725898824834,9.58237372978907
25.58513130599711,-1.320157724742434,-0.1611779782007425,9.528878143171774
25.600747502576517,-0.8626547990094655,-0.15373980931858514,9.53087849677858
25.604631510647273,-0.5679216781972107,-0.16007489430555635,9.578576140222914
25.620379785602015,-0.43336849062972777,-0.16875597280622986,9.503530607111136
25.624266418624213,-0.2965090199120669,-0.22786220852460717,9.558610900256001
25.640013311613174,-0.09941041928022587,-0.1478238846203167,9.538572235031923
25.64387644675118,0.023067230724547416,-0.1753225769685379,9.555338531667962
25.659633434653017,0.2633013919808503,-0.22835924507281313,9.594073581036657
25.663410241350643,0.5341759893127382,-0.2010048079972482,9.52270624747955
25.68012917429112,0.808710438510511,-0.23144207757046698,9.532958173743774
25.68406163430223,1.016060591676956,-0.20137888950572314,9.574333373377884
25.699810622419253,1.199854216862965,-0.19433445157584586,9.542944825360545
25.704402712783843,1.3693502210805015,-0.25459170679849547,9.545922251962216
25.720780053752726,1.698587362765948,-0.24179539010545356,9.590508471476628
25.72529903874739,1.8842837793643266,-0.21737107058701313,9.526171508561058
25.741029017454977,2.343703551712051,-0.25852189313862767,9.563456164328928
25.74479776798889,2.6110877155765246,-0.2733065481505709,9.543356421281036
25.760666504077513,2.2340074953356184,-0.25620138676634635,9.500416816325533
25.764410500809852,2.1131945725546473,-0.27090612063514347,9.548492382299216
25.780228762764416,2.2739154982632503,-0.2875889705856567,9.575738864061151
25.784016473956495,2.2340698581148524,-0.2350683643168324,9.541868995523268
25.7999170429362,1.817676177338331,-0.2713759340535855,9.482440895938854
25.803577345269012,1.6413009848042095,-0.21529056554606654,9.59128554131617
25.819526713999014,1.4435282744764302,-0.21005870901895204,9.555783484246412
25.8231985577237,1.3765916539159033,-0.25684428611449267,9.609544921611976
25.839145870645748,1.29716702639892,-0.23741108961986962,9.47236782036654
25.842878321905758,1.091950638541382,-0.20785365525054555,9.557684855887866
25.859741328950644,0.7961520776911524,-0.1893020081696306,9.567897936846043
25.863365729940934,0.7017072564515856,-0.2186093991855364,9.552221373259544
25.87941204530197,0.5595314462961319,-0.21957494427076252,9.5500205192589
25.88300879274852,0.3781173252692746,-0.18552113431860331,9.525342310912334
25.899910898715543,0.11627370439056643,-0.23171470993931975,9.546508896726461
25.903656131889175,-0.01401875089939589,-0.1545620539452102,9.54286794087353
25.919506727413705,-0.28338690263810284,-0.2089283545378216,9.565775606098576
25.9244157209664,-0.4659318712086013,-0.2028394285685667,9.531908827893464
25.941364794841824,-0.7400816430923493,-0.11731434957015396,9.549885199800206
25.944657727587614,-1.0688859225464133,-0.18142816977885598,9.524988033430102
25.96088362274759,-1.1658558914303128,-0.15916542402819125,9.536792116851583
25.96507867116944,-1.3367214465586792,-0.18193837357744846,9.560558776036709
25.981618735500245,-1.7565702795530806,-0.12818806870812302,9.527040324892903
25.98482107751657,-2.0716699648825205,-0.1507451322003251,9.558389075627622
26.001146125900565,-2.2298707939713998,-0.10175110335191283,9.557754529246719
26.004436088549152,-2.4004962506460386,-0.1304963626457845,9.554982778032903
26.02077717631216,-2.458808387636968,-0.1351329685583296,9.553318610303775
26.024039033269478,-2.050512256651723,-0.11591897722582256,9.599827578289373
26.040381434979473,-1.4328051868883354,-0.1210543089989673,9.5365194503864
26.04367163542197,-1.254986839167288,-0.14072748433338364,9.503781784872304
26.059883973391305,-1.2274447897682959,-0.16835055909708366,9.544395363273003
26.063207161393002,-1.2941462860437734,-0.13496669301504896,9.557929595677097
26.079570714879917,-1.434803616141357,-0.15597708868648202,9.557387402209013
26.082794293077132,-1.3299729654396815,-0.17993747173224237,9.57613714644029
26.099285260312538,-0.9471618159424913,-0.12201826543418341,9.513089824148148
26.10238357798498,-0.6865030545573019,-0.15829485326328926,9.565553536970567
26.1189350711244,-0.5224372488225472,-0.17352083996011372,9.495837817956811
26.12282627897347,-0.3036468841929069,-0.22694786085821728,9.567836121043428
26.139980258637568,-0.11926276688537722,-0.17357688088953216,9.540675552410386
26.143634857755902,-0.0025202277088219034,-0.18121356569715236,9.509351830051978
26.16046116343697,0.1904714620028752,-0.22241689987883329,9.587035600394325
26.16435203433475,0.5227066215214727,-0.18017577840643223,9.514510592596407
26.180626899170402,0.7625885807730746,-0.22546648016212362,9.558346912178372
26.183835500359855,0.9722947615053671,-0.22023280268981735,9.549082260309056
26.20023274784571,1.1742860723381756,-0.21450979305220028,9.543472856016335
26.20341882683925,1.276973244759536,-0.23567899945259588,9.56361121102897
26.21988232600364,1.5446739750419751,-0.2765168775641314,9.539135171758165
26.223019808051536,1.919724252769855,-0.2399938509160916,9.558993068734003
26.239526220957565,2.273754289138647,-0.22982438904211244,9.527459909023873
26.242614523183637,2.2975165740096233,-0.2633097138955009,9.537998622383475
26.259060373713915,2.329898714617017,-0.2639434785438533,9.515357545881157
26.262188543623033,2.279572873218247,-0.23151312713796132,9.56121582594846
26.278698894347055,2.290038149674769,-0.24816303343356222,9.564323824443083
26.28175445297669,2.2075313031814376,-0.25971719562282236,9.567432605551462
26.29833871509928,1.9096917913045912,-0.25358300456379307,9.511211893788584
26.301953659132607,1.654014232820269,-0.2429698511182654,9.56825985351549
26.319229755125182,1.4586368317509488,-0.2182552258116906,9.55477588276648
26.32288939626944,1.4015322614554786,-0.2590177175614248,9.596705004271673
26.339652499818303,1.3442320004492267,-0.25486972582670625,9.480233564467012
26.342517461262922,1.053397186376431,-0.21822166278866192,9.54113206844625
26.359283961172967,0.8221214495044787,-0.2084070996761609,9.55539008179706
26.362043066586864,0.7855509596710017,-0.2150207945163921,9.555992797113069
26.378848665206025,0.6236865402835755,-0.23141135533325394,9.562022985980713
26.381681973484625,0.45332262232863696,-0.20793404303487428,9.552138766996856
26.398495237372888,0.2299797635609712,-0.21861060065865975,9.549359402930548
26.4012836731093,0.03674789504491938,-0.17402052170684473,9.545737883053242
26.4181437018324,-0.18897297776787833,-0.15970450725218438,9.577195988031274
26.420777120219288,-0.4059991975245492,-0.24446591567989898,9.535883487631507
26.43765355516174,-0.5614279843626123,-0.13962645641939656,9.551421129383307
26.440478171689264,-0.8925632812143983,-0.16019999881576613,9.543202480944046
26.457297053976433,-1.1704344386566294,-0.17176812478223313,9.533979735733139
26.460289160471895,-1.2060783989592312,-0.1574456137291507,9.579431162357784
26.478325809500568,-1.451389239582446,-0.13767516661666476,9.531345578256156
26.481648043232095,-1.897447441350852,-0.12204279628717296,9.533886288164409
26.49856653143026,-2.165587327257715,-0.13877198578511546,9.541569803867704
26.5012186160747,-2.298479357303583,-0.10927917730635367,9.558085235358
26.518222260236115,-2.500799928024414,-0.12038132114202557,9.53758647004621
26.520740874342263,-2.338741192803031,-0.16742660441166696,9.576196330628322
26.538514525304695,-1.703035601873566,-0.14156846607172757,9.554675980743866
26.541504928409275,-1.302073294484149,-0.14794577183759,9.49589206797954
26.558403962034323,-1.2412144055006924,-0.15376325648192746,9.52294636570976
26.560998461486683,-1.2535836545472525,-0.15148467674046315,9.566410448369691
26.578014183157215,-1.3454778480864702,-0.14533991200491345,9.57200780477286
26.580591929364466,-1.3784753002887233,-0.16142245117634088,9.586218402581906
26.59766594104429,-1.0526803623914132,-0.13534226032396496,9.538720192661463
26.600141917439473,-0.7299099304271721,-0.14732285025825861,9.539247080778718
26.617286096168808,-0.5560170481009857,-0.17539034845084486,9.503168099900027
26.619784425906563,-0.41250436859108525,-0.1565578996548135,9.537365219982561
26.6368627348877,-0.20988562850194725,-0.2081633848103982,9.587622949271726
26.63936325288686,-0.07935210465224896,-0.14956747271254917,9.509809076986272
26.656497604285118,0.020229328899325306,-0.22649497149762315,9.532010186928243
26.658862851013787,0.33844958247834217,-0.19689442955211603,9.582289843228393
26.67614352040554,0.6055734830179895,-0.22025072644068408,9.522331048726668
26.678542320160794,0.8279486293134234,-0.22043474386082362,9.552667773591596
26.6965535276219,1.120319852871737,-0.21369929653343456,9.540873327880194
26.69918778286465,1.2182899095380912,-0.21313162939722313,9.536735039331257
26.716305217117995,1.3949598876104596,-0.2448079957625459,9.552707852618056
26.719526301283654,1.6982878695842132,-0.23863869377463043,9.558233152616962
26.737083361556305,2.084777428031599,-0.2336374918247103,9.542976238979051
26.739183021712385,2.3070247117613243,-0.2687874339886034,9.536130784608655
26.756568169471393,2.323469349822034,-0.2675768100682873,9.524191284447873
26.758887362706524,2.3101606230865706,-0.24824781089411072,9.549725459175887
26.776245569908863,2.2815572850421217,-0.26953577883923513,9.539077740278126
26.778488985215517,2.2775513327471946,-0.2678104896007654,9.574518197886674
26.795878365578677,2.0097882950212838,-0.24914985049722835,9.513817648230486
26.79802836711,1.7528220278413478,-0.23517247964222274,9.558682250614241
26.815471569891606,1.5520057791460404,-0.22641669031343936,9.554446307927295
26.81762172826795,1.4154063852635095,-0.24480873410373075,9.569808559149537
26.834993175157233,1.383262847861396,-0.2635493098843313,9.543091617582633
26.83724990738674,1.2703143621664288,-0.2359133139291108,9.481104493187614
26.854740156688717,1.0133177578633648,-0.2091495962868391,9.555179000447616
26.856834551917384,0.7934606236226713,-0.20267966308566265,9.564366143615509
26.874295353877088,0.7353175449924371,-0.21501585153830488,9.558577237941297
26.876438472455394,0.5705866335096543,-0.22037718779444934,9.557006498829391
26.893881314377964,0.37165537255220044,-0.19191263431423267,9.529530864048128
26.896421246390368,0.12438817309042186,-0.22075573817239003,9.539795812797731
26.91470910466782,-0.031970831109542054,-0.14206121192231946,9.526941112199076
26.917365556676668,-0.31476610522824117,-0.21783843181056575,9.538737204384097
26.935315802140895,-0.49055203263906644,-0.18468215613686026,9.509244753404557
26.937034964637576,-0.6933151803473004,-0.11860181196344274,9.573111757635045
26.955122400573174,-1.0553084705201714,-0.18146337667294352,9.528447789731107
26.95803187917692,-1.1794591220053166,-0.16059607535805479,9.547417355460988
26.976827047481684,-1.2905984702019473,-0.14381697089417447,9.55314041275042
26.979381060886674,-1.778666100550507,-0.13087637997425508,9.517158686394458
26.997027631377147,-2.106079099777576,-0.14397288722375162,9.54709901055428
26.99885974206461,-2.2498498526698185,-0.10842385473558376,9.577874859545398
27.01739732647078,-2.416986349537277,-0.09819346704573789,9.530854106169073
27.01957396401058,-2.4108208027964,-0.14601955385543397,9.557450740516185
27.037260803731847,-1.8577301892979587,-0.1260811182239946,9.594056568081045
27.039136609467967,-1.418247172637312,-0.13129042796436602,9.501593833426721
27.0568830697597,-1.3039322985991824,-0.14910532425737513,9.514989391769987
27.058694924613846,-1.2627593158331754,-0.1679167240639725,9.563146896860069
27.07655390858377,-1.3257885720770992,-0.15521608662193104,9.571736094614852
27.078240896661278,-1.3959447358501709,-0.1591221409013377,9.57028340728835
27.0961792273197,-1.1794983661511966,-0.1745482820495893,9.525497391282219
27.097841639772234,-0.8186022776392138,-0.12352913973211355,9.534372698284054
27.11582902172201,-0.6249346717743371,-0.18319061642799128,9.571182140930786
27.1174157521904,-0.45709330509598173,-0.16374139631547532,9.54010364165948
27.135448690551623,-0.22499221194801758,-0.22157276510663332,9.59021122661661
27.136937745651892,-0.1162600883904145,-0.12763533870213464,9.534836120011539
27.15508293262424,-0.05587433720196327,-0.16275550957463433,9.513358569650379
27.156465308913823,0.21898937158129408,-0.22076140793290622,9.62100335227509
27.175044637296033,0.4888866486997209,-0.18669532759492802,9.528074913082149
27.177240923215432,0.7997297281279541,-0.23142630371875564,9.552456869483214
27.196095420022548,1.1235236765093366,-0.21243783409862022,9.541363846689753
27.197790496224187,1.1756392632895007,-0.20044191224000943,9.530236864165728
27.21616207376391,1.3280549232860497,-0.23818650460819377,9.54823313270568
27.21849555820065,1.5844801133366402,-0.2730454610285457,9.576935101475051
27.236439659379112,1.9341690802118716,-0.24191829799329276,9.552623976099333
27.238014588446593,2.287260098644966,-0.26035413934301854,9.535153318093313
27.25608967308612,2.3544282446435756,-0.264581158209966,9.533191482606549
27.25762359626876,2.278432240243451,-0.27045896977115413,9.543625447547807
27.275732423528567,2.264208727890945,-0.24100631882371853,9.53488003669629
27.277100236489968,2.235618694028951,-0.24589955997490492,9.56651030127682
27.29600379855221,2.0730378683051986,-0.26868937583707264,9.55443907364209
27.297874099316527,1.7715509189793266,-0.2237455254201906,9.534003510799199
27.315819128696077,1.5385948660291893,-0.2454229913205769,9.542278202992536
27.317988898838898,1.4591746204212397,-0.22892620987901138,9.57326424166699
27.33663189625094,1.445811756472695,-0.2612415349038543,9.559862257716565
27.33792275704432,1.2415262133000535,-0.236120187711561,9.489828252893146
27.356167884059555,0.9490205439947557,-0.21507431250315262,9.548610850431443
27.358009474758237,0.8177101558590449,-0.1937216445231029,9.554718194894853
27.376938221045155,0.7198475732905156,-0.2123184920163708,9.550689365861606
27.378065943228236,0.5429538765891824,-0.20393632196339698,9.524475201808798
27.397473373047855,0.3192507148832396,-0.21911517398075298,9.552396452433785
27.398628284972652,0.1251854332420076,-0.22063781081841202,9.535678169191272
27.417051696814664,-0.05745330739370181,-0.12478061533655434,9.521933466695971
27.41823643554644,-0.3031782624954717,-0.22079294214674905,9.560309962140561
27.436762485110876,-0.50049892991866,-0.19363533258207752,9.52692959797692
27.437786421586434,-0.7287550684227241,-0.1250506142962008,9.565348936751766
27.456371890970313,-1.0598204013071824,-0.17723439255226692,9.520621297743443
27.457393327102125,-1.207335634722614,-0.146743706045406,9.537725213583082
27.476012897281503,-1.2725042095192796,-0.17124991580910173,9.558135920798781
27.476997810358196,-1.5681049997490328,-0.1106926511749786,9.539212289226041
27.4956449010882,-1.9849651862327897,-0.14005818386326602,9.542337394366138
27.496495308563222,-2.2215367364996013,-0.11559457445249294,9.582789057315981
27.51524741438211,-2.355603401798106,-0.12263467403310487,9.540842661357626
27.516061642503907,-2.5065252835199208,-0.12294518711298934,9.56732873363321
27.535551880703146,-2.019146084535945,-0.11553304334493071,9.593092778231572
27.536834568818374,-1.4561354134546678,-0.13439788326551208,9.51048010303501
27.55537935629149,-1.2959493972890213,-0.16825412258762265,9.486438662044547
27.556978226744793,-1.297337777610174,-0.16166126096238911,9.553233219396493
27.57617244495013,-1.3246464932982311,-0.1633712627417886,9.55376737299429
27.57676121491971,-1.3975974307078893,-0.16366833334526765,9.589741050094956
27.595853464687252,-1.2371047571572507,-0.17254745394333337,9.526214875836732
27.59633674764635,-0.8806953175085946,-0.13573124521661298,9.540963393130511
27.616039161042824,-0.6670912055955625,-0.15934492195272712,9.547940306113803
27.61808502975039,-0.5247309335391123,-0.1793693843829223,9.537977279836138
27.63693972974845,-0.2549825200861635,-0.21759810141087538,9.5806870978979
27.637672680649164,-0.08200254080290383,-0.15379633520340447,9.539966481677684
27.656645089728656,0.02407225988746316,-0.1705794597219044,9.521526520413442
27.65720374249188,0.24434068865387223,-0.23056795787387463,9.58035869352437
27.676249931165724,0.455038232388814,-0.18541199538573155,9.518770903951207
27.676713892566102,0.6857415678879676,-0.23069210335588639,9.537345950118212
27.696221533372533,1.0456304436566781,-0.230616039180643,9.532306311239235
27.698364375468206,1.1991885054577214,-0.20046315106632093,9.535844141382176
27.717490335280413,1.356837865580545,-0.2569410812190659,9.545963510102503
27.7179092392936,1.5984123618328756,-0.2739143788030494,9.560984006256058
27.73705457013783,1.9983739138781134,-0.24183621761530388,9.554248413203455
27.73759437250652,2.2222822547017893,-0.23772659213172753,9.547453849709283
27.75674327737609,2.24521113840351,-0.27902060237299126,9.509382034010923
27.75718171928543,2.292430899704198,-0.25604135123787664,9.538318729823752
27.776387612260617,2.3929981567722387,-0.22916212230137434,9.549589841542703
27.776704118705247,2.2292705439973286,-0.26330514773337127,9.535668664071197
27.796002193273246,2.027107541089926,-0.27013254013640586,9.522302082069386
27.796265219586385,1.7364021377095487,-0.22399565335899282,9.549618398770154
27.815563240028442,1.5580423375462702,-0.24260194934258145,9.558503414485154
27.81593068359469,1.458864709497907,-0.2114959508556822,9.534285513331612
27.835267207117546,1.4709248650788211,-0.26432378523791,9.571577710858522
27.8354463674699,1.3736850460271839,-0.2473186576217432,9.472037273114694
27.854880115849433,1.0619494845225956,-0.23386786430959725,9.564578012952438
27.85497846378909,0.8696283890104287,-0.18531890497398273,9.570105466670368
27.87452601012264,0.7442477758197448,-0.20533192952099963,9.564982799398194
27.874582864705307,0.6414232850821917,-0.20712937600485506,9.559395667863821
27.894599891844692,0.44094959324226873,-0.20421281083660092,9.529099545494963
27.895313026102865,0.13946967809980734,-0.2102768561531847,9.552850850036883
27.914595072701086,-0.008124375283172693,-0.1773834336792336,9.54929940662388
27.914903807584654,-0.19216864570123518,-0.15748829755295832,9.578352962208756
27.934241595527652,-0.4059752319447074,-0.259451477338332,9.544596268534145
27.934789844367845,-0.6411321381990397,-0.1185403875251155,9.520483683458567
27.95507363962498,-0.9587541262508265,-0.14912467303190485,9.55285344045682
27.9548962467805,-1.218637516727454,-0.17466404950774103,9.548378050167658
27.97457790299647,-1.2275495190463064,-0.15819819345841804,9.561875871332747
27.974476790790064,-1.527495300447619,-0.120847436304423,9.532073566199967
27.99431165489268,-1.9471514132145606,-0.12808378271534882,9.525662168527088
27.994087242012082,-2.134032808769075,-0.14506721722628646,9.558977564798719
28.013874817737413,-2.3147671458108787,-0.10359533400303475,9.533277347446125
28.013652287924746,-2.4720976248465067,-0.11549746906059528,9.52555061100356
28.0335382940328,-2.2174994900902116,-0.1593835418767346,9.56335509811495
28.033252691031713,-1.613730627813133,-0.11148700460407818,9.560159602760756
28.053187892732126,-1.3752768787178602,-0.14578939402462168,9.511831776947021
28.052847129154788,-1.2813533153057743,-0.15546286754510827,9.532875572688312
28.072840792463726,-1.2625363992272285,-0.15503990313099283,9.543149654308815
28.072345412557016,-1.3899543841395487,-0.13911513914151105,9.575549752980862
28.09251612776661,-1.406514712827722,-0.18592831087087988,9.552534661699406
28.09296180505505,-1.0014760034044745,-0.10997862545956738,9.520048220172532
28.113434909181407,-0.735182499593098,-0.17150304248350098,9.529833911996931
28.114325980241706,-0.5437463782465226,-0.16856355218710103,9.54334792098214
28.13557673763318,-0.3237246889337887,-0.21565242769859055,9.595502197836636
28.1355920441522,-0.15620922524126038,-0.1328722522468648,9.546721111848312
28.156456797551137,-0.04838512718054012,-0.16659721747752962,9.5228861280859
28.156549653258168,0.21202040732376082,-0.2168281841614777,9.623414235471074
28.176990343705146,0.5383883696747875,-0.1835716505666613,9.51580993908997
28.1762215890099,0.7534373148737266,-0.24013539565582373,9.532055134714453
28.197477090916465,1.0769754420027122,-0.2139721907545962,9.546377993971056
28.19686432089908,1.1836810049652482,-0.20451331273192405,9.545562151551174
28.218037135518784,1.342899692775383,-0.23806242550582857,9.554921669421264
28.21748900696299,1.5980470718602282,-0.2573283591184506,9.576511618813234
28.237814483656734,1.9429135474093977,-0.2365145479991279,9.550145903117121
28.23706521228718,2.265840974568956,-0.2454900350771462,9.5457418000936
28.257448076467593,2.327637019446802,-0.2780218384071906,9.520899199416613
28.257345787667788,2.3287032091661697,-0.271827578737088,9.553747891974146
28.278232841145837,2.2458734673518945,-0.24508551730868128,9.529864856516674
28.277082765973336,2.250300819142667,-0.2704035242597665,9.576867917490867
28.298492743984266,2.0294235802063656,-0.25851030405257247,9.527129229816481
28.297820248415416,1.751709889070938,-0.2278198275278911,9.551955603457484
28.31839455565691,1.5544404881112417,-0.23742050961837785,9.560357287132593
28.317319191837328,1.45687746344449,-0.21830421854447837,9.576402906138238
28.337970261886014,1.4248193823279607,-0.2564077717595209,9.537592584153284
28.3368838959475,1.2683631157633428,-0.25102781159822524,9.509658386236069
28.35746625258319,0.9679205821429995,-0.21236557449302815,9.570574668238425
28.356396022465763,0.872410042818338,-0.1860357641565952,9.573243818868988
28.378854296715748,0.7344807230826751,-0.21294119584837165,9.559749352015048
28.379150140088466,0.5514794148790737,-0.2232214421089668,9.53933632490572
28.399860908344156,0.32054745465162776,-0.20193040248965777,9.564945104226446
28.398644862986572,0.11196165029161348,-0.20536427185682088,9.526099098869402
28.41950395456659,-0.08751155474506893,-0.1376968176309536,9.545134186027305
28.41823290896654,-0.30701154018199844,-0.23704180160476285,9.556143720316435
28.439157241477893,-0.47768462384860755,-0.17988267790517296,9.534414900431967
28.43783217198374,-0.7317490625428714,-0.12324899094277982,9.554439205252969
28.458797525072836,-1.0620146827170183,-0.17265214634527049,9.520419707679645
28.458245914041296,-1.2295290239505117,-0.13375501453900782,9.566284984168938
28.479474176864134,-1.3289599104296257,-0.1669691017571198,9.542018536160338
28.478730394513207,-1.794359875444222,-0.14082637927706035,9.505122608465056
28.500172970418046,-2.0933322266822865,-0.12381576606434337,9.552238676395053
28.49848250460577,-2.2399883176743565,-0.1084403724602665,9.563128611624801
28.519746446395697,-2.4097098279607017,-0.13272628100578512,9.540936117629833
28.51802398094911,-2.4067054068053753,-0.12979771786154418,9.580070642313643
28.539366773868732,-1.8495523427374096,-0.10950741926938072,9.590356564845647
28.537594021909094,-1.4763276198302284,-0.1367728693300646,9.534556807031176
28.559042297757824,-1.2908016257218962,-0.16790327416420972,9.50671102457774
28.557208249209474,-1.2800744076694393,-0.1440024073911594,9.555517120604884
28.578656175662786,-1.340199928148573,-0.158389898551265,9.545528053975964
28.57672870116061,-1.416414316112128,-0.17964205759212568,9.569282883151265
28.598291571058816,-1.1390910740960556,-0.1829081262751161,9.51657799904952
28.59632558454082,-0.8069280030512973,-0.11974020012493183,9.528745374691251
28.617937845526864,-0.6938982881567863,-0.18931975093823383,9.522097711060274
28.615884120168168,-0.5241730674405466,-0.1590786496730053,9.541720513097205
28.63760949063145,-0.30180927033181454,-0.21169946105638715,9.588314262091973
28.635434263095636,-0.10534416634211474,-0.15005358063952043,9.53889957986598
28.657234654240526,-0.026504456156414856,-0.1852577116711527,9.497529458323125
28.655934953544982,0.2578396507436743,-0.22610964862922317,9.593719091861058
28.67781436580322,0.5020054187070508,-0.18079783865313206,9.537883131837045
28.675604732994184,0.7492629434062813,-0.20938352111024297,9.554408506736186
28.69737364062508,1.1081479715817937,-0.21474404778045286,9.539661115850704
28.695526755052974,1.1754487609312019,-0.19541165185654485,9.544120447567247
28.71905905146074,1.351814981990463,-0.25721038327793333,9.549752943363767
28.716716458864365,1.6957267137465892,-0.2601304653244441,9.566004201294307
28.738753274270433,1.982225577440131,-0.2342113498297769,9.548149758578537
28.73705769859406,2.2759326678191694,-0.2615940917110617,9.545545390319843
28.75949041706772,2.318058165426536,-0.26909668228518435,9.518633704626488
28.7568055094439,2.3562756417237614,-0.2544781793179886,9.541388831177096
28.779116404801627,2.1999301981045254,-0.2459731866827954,9.530692249197806
28.77640707972839,2.1463622390358315,-0.2741874383180007,9.57358146713838
28.798758382957182,2.0827646286323116,-0.27954096176317866,9.541212629797247
28.795930422819257,1.8713191466383137,-0.2430631947863101,9.555482518007539
28.81836906759038,1.6522943514860773,-0.2318341050245985,9.537288935657168
28.8155142655958,1.4730238319146893,-0.23495346418668633,9.56787538542125
28.8379607460126,1.398985722215965,-0.24479037948641835,9.566162971421436
28.835134300796188,1.2633868000538482,-0.23831025121797783,9.502197920204924
28.857620902034288,0.9734871309448809,-0.2268968884425839,9.55533467404957
28.85520555147704,0.8395750755537845,-0.21329824335094852,9.548814558726862
28.87852215649617,0.7409644361849095,-0.22177835762839965,9.561713388405048
28.876098621548017,0.5732462582071267,-0.2064692212041532,9.53885460002002
28.89901943371586,0.3430698514924561,-0.1889629844585243,9.54749997563696
28.895764393337327,0.10225865830265322,-0.22499510977642792,9.531695494536978
28.918650805500295,-0.08648408595007842,-0.15385385199143425,9.55055366305131
28.91527647574708,-0.27012079785431153,-0.22141475283413567,9.546851386071912
28.938287485527855,-0.47607580372361524,-0.17237525405908893,9.521451509409866
28.934841177345927,-0.7226237338405288,-0.12024478683512466,9.537961611513092
28.957929295847112,-1.0350663467981494,-0.18125947826571612,9.563948809256402
28.954456931999648,-1.2112586691886178,-0.14226171369361407,9.58140116333924
28.977588468965333,-1.2787386803667273,-0.13228852817190667,9.578249567705669
28.97394763600668,-1.6507439171811975,-0.1521356459610389,9.510356813419456
28.997187246372132,-2.0108047944328216,-0.14651131945519494,9.522976331063875
28.993575106379517,-2.2209848897980806,-0.10616275371255195,9.572466533856115
29.016826139840067,-2.395491292994468,-0.129633621905691,9.540762879779514
29.01385215644797,-2.4736885764754413,-0.14711321068023417,9.558560131260514
29.03757015109533,-2.023350088073565,-0.13301453447101405,9.57307560723
29.033638552244586,-1.4450563175647804,-0.12509714679312486,9.557790573648633
29.057205356374144,-1.3280529000461374,-0.16558969666907228,9.475529180401143
29.053342751375062,-1.347330672155095,-0.1646698883035037,9.534159705046225
29.07792652069434,-1.3744123282744627,-0.15146207895643723,9.560041117714066
29.07373206302253,-1.4249700022477552,-0.15027212754208988,9.56186641020248
29.097509439484618,-1.2119460693949136,-0.1714850961682687,9.531164106134451
29.093270382045027,-0.8002696315955008,-0.13649759341302922,9.580271962577259
29.11716761467169,-0.666623447932873,-0.1973686196917484,9.519735681931532
29.112845305056304,-0.4783210436717062,-0.17145835671155743,9.551264614848764
29.136769742096035,-0.31195488206899424,-0.2208206838708144,9.549952137418552
29.132897876989098,-0.09791669212207237,-0.16179540581239082,9.561180134948268
29.157622886974124,-0.026793445654347547,-0.165979809578625,9.501386551551263
29.1528913554857,0.2540330027498125,-0.20839267739252731,9.606021959197165
29.177215973323538,0.4343943821573392,-0.1950143013493978,9.501733442437233
29.172410275891856,0.6605434645286853,-0.20699731758388765,9.569777292336598
29.19685052629274,0.8873606138044807,-0.2194416452942486,9.493594688683412
29.19199162787908,1.3129373038607146,-0.18525832368139752,9.58831847432565
29.216519079896557,1.3715236492750955,-0.09940602066933628,9.411592119017062
29.211572263121422,1.3818661447498193,-0.3714065528552546,9.842878721853046
29.236163102122813,1.9831854440432577,-0.2511253362285676,9.932802379549331
29.231331499203698,2.1290584452204544,-0.2557694548025183,9.455969468191492
29.257735561031133,2.3945893824513482,-0.2628076586262771,9.5956149045672
29.252638585103107,2.371238247886484,-0.27086394887242593,9.49935254757836
29.277536429402296,2.326669750622163,-0.23062188482923182,9.547412847019501
29.272175473576944,2.336274760601457,-0.26282555581979117,9.536297224018034
29.297155307929128,2.1176903026406744,-0.25053138519202595,9.578748508544386
29.29169380870948,1.7896816532662143,-0.2625156654130294,9.529045792776213
29.31682144737667,1.6297521264018582,-0.2208877980434921,9.579772658905256
29.311191638955858,1.4496309239183502,-0.2128935785888055,9.571377737545973
29.33655836957606,1.468145588489742,-0.28543754387845877,9.551462722309774
29.330786395105783,1.3432899738502708,-0.25978746387054513,9.464776623310449
29.356210322759967,0.9978179447637012,-0.21279405559688933,9.529925886197221
29.350269254229744,0.7865442569275386,-0.1725725503804726,9.512021396352676
29.37588291544739,0.7785721288387321,-0.2135533330510654,9.575331549245773
29.369822655050147,0.6249850917892235,-0.20640789407594812,9.526408256654312
29.395578507047237,0.3517485099718718,-0.1879754646642636,9.543682562142102
29.389373107091163,0.030192941435267004,-0.22777010603891595,9.553106484139306
29.415256203568806,-0.1703096312946967,-0.19095025151126108,9.532447758840982
29.40883798751993,-0.420534705502263,-0.10974027031247043,9.576379844257678
29.434928002977074,-0.7089568682907508,-0.24264858526065597,9.54839631472278
29.428312978363955,-0.8970053067305135,-0.1366280070086251,9.521833243288455
29.45499276064445,-1.1743732357238095,-0.13594612969745565,9.55238793473225
29.44902904199427,-1.2503069574837153,-0.18955921275607956,9.56765491577966
29.475234707005516,-1.431210023775003,-0.12925499451987005,9.519798541902203
29.468510742791388,-1.8472159588611365,-0.14406120342291645,9.52411001063891
29.49496668512003,-2.0434326660181963,-0.11826618769625337,9.552753543083714
29.48802336095562,-2.120009869654046,-0.13493034378673813,9.560123513404948
29.514610777618426,-2.2521692302548884,-0.1106932846123188,9.55543501031933
29.50751518750966,-2.202176040875699,-0.12655377102431956,9.553933614209017
29.534234876135656,-1.617607243582164,-0.13054700855844598,9.57389160233625
29.527044718278237,-1.1473792752398,-0.1463517521425162,9.534409221368351
29.55404472294817,-0.9603579419335315,-0.16231873563675517,9.51710413433207
29.54656695830157,-1.07168787216811,-0.15690313280006807,9.519938012480184
29.57369299347296,-1.119139556724363,-0.1692570140022891,9.555785624184532
29.566049821952884,-1.0379473436423743,-0.15167968088575068,9.575455661306123
29.593409696109052,-0.8234638146105454,-0.15048123705400165,9.539168689714458
29.585579029592697,-0.5135785826917065,-0.1564966769985988,9.552968834676715
29.61312548327883,-0.30982895583022835,-0.17305275950055096,9.532453575572799
29.605115173337687,-0.16661923002420934,-0.206376301476554,9.562157307513685
29.63279437062946,-0.06213839653871633,-0.21728416218415184,9.53467399835014
29.624469101183113,0.12274139433401085,-0.17977060178498294,9.530199682924835
29.652543859210624,0.2151619754124264,-0.19311604104306693,9.544627471473786
29.644067583534458,0.37100094294181774,-0.2224297317643038,9.555496131793245
29.672235751204454,0.6286239828348438,-0.20598836004876736,9.557811715982544
29.6635731440988,0.8403297168796899,-0.24235024944691708,9.548519293804176
29.691978033603988,0.9486705666627495,-0.20957989859677836,9.529098368095429
29.68302268563556,1.1294175801821198,-0.2259380359910955,9.560009503529406
29.712565364471267,1.3252642937270585,-0.25608056444251037,9.563280609568984
29.70357943185863,1.567506962299385,-0.2600986288543649,9.720656025432103
29.732342533352664,1.5234954919930939,-0.21827631739369044,9.63654758475887
29.723062488754856,1.5062431384674044,-0.2265186836882813,9.379683132993165
29.752085499447844,1.3539187068814211,-0.21603724601310295,9.068397335281466
29.742577332435193,1.4365927484255665,-0.24639406301622274,9.494136928391388
29.77179280269966,1.6226982686394478,-0.1968255868553769,9.375015134570473
29.762767422479392,1.5706708536823675,-0.22252425765969924,9.43734399629971
29.792653047662412,1.4522361416093383,-0.2503968205713556,9.634133592397983
29.782386310499906,0.9494938486047175,-0.2325584437450114,9.466130353956359
29.812245797588,0.9511974812314254,-0.220006821197783,9.595590741093105
29.801904739604566,0.8832804269530983,-0.20104395183249318,9.560686609066835
29.831951607079574,0.7622947592256286,-0.21172418973367582,9.538148497889756
29.821463432729075,0.6419723215187216,-0.20301365532156282,9.499558455385
29.851753040431237,0.528925272706316,-0.19886808624601177,9.596509982295796
29.84102417626489,0.35732696848208745,-0.17052397321598312,9.553489383681633
29.872498830032413,0.21016726287342152,-0.20652491073340712,9.555982757417624
29.861355932477302,0.04991111621028348,-0.17590754794131325,9.533718249055926
29.892309185812,-0.05715371070639726,-0.21551622701956388,9.546658991877168
29.88077408575868,-0.17998351876416724,-0.16648364706573235,9.570465604912522
29.912026519008204,-0.3229270784778435,-0.19793059519066536,9.541710865123303
29.900239423642425,-0.40897969666254125,-0.15023641973724047,9.55197117846029
29.931808930189437,-0.4980677998733972,-0.18361471185738576,9.556207388668497
29.91969834037609,-0.6468545709390232,-0.19446851495170348,9.566520713281738
29.951601266546746,-0.7110353000177754,-0.1634154064265567,9.569481651109196
29.939093612329135,-0.7514483670998814,-0.1936575567860654,9.54105326824042
29.971343468111545,-0.7669216373687003,-0.19054522732716428,9.531118658616743
29.958512553319505,-0.8320413287574151,-0.16761968621914955,9.555493662864967
29.991935037670515,-0.8247226736548634,-0.17446439349867143,9.565216620890906
29.979005867996435,-1.0490777620258411,-0.1336748031794379,9.527641790347579
30.011905917616712,-1.0098194369326954,-0.17245213040488475,9.541224868586347
29.998363177896074,-0.7466674927456177,-0.15573994518496784,9.561743118154123
30.031950528491638,-0.4572312486779546,-0.15734191099884554,9.551804201391667
30.018851123220823,-0.25884110954921075,-0.1686163958508079,9.525593375387396
30.05311909599886,-0.263954015438284,-0.18808771813352285,9.535078191085228
30.03933040722331,-0.3524162897344272,-0.1547616588402422,9.552754578487535
30.073224713326553,-0.36069703898343497,-0.19454907011396377,9.561294512129251
30.058707141700307,-0.2103764035496611,-0.20836334162689016,9.54005455486294
30.093076794342238,-0.09721735038772829,-0.179147396836835,9.560764855945571
30.078034119765366,-0.011347684058178528,-0.20276638981686956,9.528889943044195
30.112878947729058,0.09531216709908122,-0.20036538870133752,9.53783213091064
30.097425685295484,0.1330941602495836,-0.1838748808111271,9.52308203052695
30.132715776432732,0.17376357869332,-0.19101437143439262,9.580740287038894
30.116795738626646,0.26547496465934045,-0.2213290418249072,9.53022012128693
30.15262032542906,0.4081755143686864,-0.20572998700794604,9.581523725233867
30.136106802640647,0.5083911945433525,-0.21096928257674466,9.532037817463332
30.172437206501485,0.5364766646005675,-0.21140414910774558,9.562492492218137
30.155392861565673,0.5054311602511888,-0.2147354094736002,9.516835496727778
30.19272515737761,0.5748090523291213,-0.2045740150043633,9.570746395194885
30.175920984188238,0.6128106907447505,-0.21772308036071647,9.528548477444426
30.213128706029572,0.6482726686795808,-0.21998347229814152,9.57697398607625
30.19519880861827,0.604055904079656,-0.22250253164304623,9.537204911711184
30.23306759671439,0.6445326289076106,-0.22433842691211275,9.717155070335721
30.214472198295862,0.6275651747965968,-0.2273448555057348,9.672414381822502
30.252943234439297,0.686295512643406,-0.13214849559487196,9.045024316771103
30.233710476165996,0.7400380144920685,-0.17342967282991148,9.577480374494806
30.27363360000507,0.5132927482049686,-0.11079147807596178,10.230940622733197
30.254102752485043,0.5963485895694283,-0.2806235060059814,11.693479941249414
30.293766056131428,0.334142466793058,-0.20218309974753915,9.701464990017833
30.273291198977866,0.3967463297286694,-0.21351460321957064,9.50070699443312
30.313666273075146,0.23307645960858397,-0.19389115710324278,9.307429176263591
30.292608431507134,0.1892581056709438,-0.21307007516805485,9.865004453784378
30.333665812196703,-0.023196511664421847,-0.1971057557496296,9.947169041288495
30.31175928891546,-0.2044359467314542,-0.16434865784203168,9.504386274792358
30.353706958422823,-0.27284885757273647,-0.17231576808688934,9.566723519610289
30.330972593198865,-0.34902066966339224,-0.2242324735899603,9.520720375524586
30.373779046261628,-0.29521002571469096,-0.15918705075915912,9.594277470321156
30.350167964357144,-0.16282470275798527,-0.17736742866071908,9.563089282087812
30.393847992321614,-0.060130413359574135,-0.19481593520678256,9.527798199613803
30.36930676525226,0.014340400379213847,-0.20606472361103,9.530839730298782
30.413866897511628,0.07083808569587127,-0.17222116414933006,9.58035799926505
30.3884205376177,0.08570998178854336,-0.21341964264498492,9.54119892198729
30.4339909160156,0.12583388844791768,-0.18709306113930047,9.561111782131189
30.407547014323036,0.06512690426205688,-0.194268990163155,9.555691504248538
30.454987351566793,0.07267852989090888,-0.18358912124508778,9.558001748721619
30.42789504253749,0.10755782505991633,-0.19320795601496218,9.562795533561848
30.47674143629727,0.11570827038740246,-0.17784322788448897,9.548732205364775
30.4485393341538,0.07816179353019218,-0.19311482940429212,9.539342043015957
30.498284287558132,0.09337299667103915,-0.18930451337383614,9.56395115873514
30.468556807426538,0.08844084203948574,-0.19253772762427165,9.567253983333092
30.51873064871154,0.09217656004390974,-0.21330955754422243,9.550604987022442
30.487497085212976,0.13445758059820173,-0.1960495464097014,9.549969368870716
30.53898384861235,0.09048762595512394,-0.18846608293003309,9.538558692551806
30.507073675222863,0.09676867047208718,-0.21059048123032598,9.546960124451227
30.560507626057582,0.0943825398031878,-0.19621441518728036,9.555689582217683
30.526048327213957,0.06708173144951943,-0.20420309768517503,9.532939903808973
30.58094464103677,0.10782422351902651,-0.2037926032579941,9.552900153208576
30.544871202694644,0.08730837749269174,-0.2049071518138702,9.559258131192077
30.601409035895625,0.09158540288541898,-0.1987994904605331,9.553313531447847
30.56350129446289,0.09086458404513909,-0.20601896768692082,9.539031271231119
30.62202538541848,0.11826960748293286,-0.19939193481256592,9.537495277246967
30.582013165054803,0.10462643183628802,-0.1910716197681558,9.556482434630565
30.642688607091785,0.1040859970415188,-0.20739458889954246,9.548455516880548
30.600656420572818,0.1153069063273628,-0.19871203695130296,9.534736061713957
