Time (s),Acceleration x (m/s^2),Acceleration y (m/s^2),Acceleration z (m/s^2)
11.51288424318629,0.09164979489258644,-0.1980076808312936,9.536485692050332
12.77017193239342,0.11801964943286015,-0.21718543064889398,9.54907643486834
12.030908969055364,0.12286988961425688,-0.20778912637118366,9.557277332527441
12.576072165517171,0.09096391750866967,-0.18598293161314888,9.54682625037829
12.170363907898349,0.0873159854359107,-0.19295722432415552,9.546078376675739
12.521368602940221,0.08981946242392777,-0.1896873453799917,9.562612605130107
12.243607852269122,0.10402765609453443,-0.2183080209573537,9.543560574168671
12.502891289510723,0.11393119117022121,-0.2048024408460238,9.542927060333746
12.292496029061587,0.1081690113415008,-0.18968802317431638,9.548272082752527
12.499475390174258,0.10595394706885373,-0.18812622785925315,9.552356813669487
12.331870634559628,0.09863028186608618,-0.20465748231625386,9.54265039100127
12.504489309611472,0.10688769421785282,-0.21962151897198212,9.539076829874162
12.364446216685158,0.08960144191822533,-0.19182730541257598,9.566722243119422
12.513078331097516,0.08394017486002425,-0.2009691718670383,9.563724994824883
12.393710459467295,0.10120518232422052,-0.20684711304481976,9.542048814642907
12.524322100408163,0.0985040103236814,-0.2060197594727235,9.543740183205593
12.42060099971604,0.1270932347914794,-0.20219331021124567,9.546031102087934
12.53747560614036,0.09204015695587153,-0.1825135820809137,9.553113895441124
12.445975445049033,0.09711561872137221,-0.20872687979572374,9.54060571064624
12.55187800519991,0.09540152603889866,-0.18680180885202574,9.54949382180525
12.470353334163207,0.10473362635274935,-0.2122154832910014,9.572749129331598
12.567271847165339,0.09111853340908391,-0.20936285666434554,9.547969635568244
12.493774823062154,0.11196494434923676,-0.20825898882095253,9.54378961294046
12.583337782054029,0.11254015190251286,-0.19129774784323408,9.549465290997876
12.516597391834347,0.10247329181243116,-0.19726323686244576,9.53393226564795
12.599922994099417,0.11085981452638839,-0.1990008204135937,9.560743402966725
12.539086859469867,0.11400201412718643,-0.20159642473510284,9.539048273397986
12.616979275002603,0.10344621775574638,-0.19684213202785342,9.549770575701787
12.561029554924996,0.10318703181766509,-0.2038107700179912,9.531063975267804
12.63437578377235,0.12336218912546103,-0.2009429183316331,9.565020138186677
12.582743065891577,0.10055841780681146,-0.19139409191445794,9.566070167329276
12.652063584853973,0.1088855084260727,-0.195916571062442,9.552989518753014
12.604202120870369,0.11830027344521665,-0.18829497504994583,9.543521463577184
12.669962872591116,0.19029720620107143,-0.20181278467001798,9.561768040662251
12.62532180143729,0.33720667099264057,-0.20767597180564185,9.54344307382089
12.68779774820648,0.38633698632474384,-0.1855399286143011,9.538900751949502
12.646402284611625,0.33902120040761025,-0.2010810072270341,9.526687431668286
12.706295959763281,0.2566346233761649,-0.20758635750813553,9.546274418901522
12.667401940045167,0.0977478236595761,-0.19588736363615128,9.561596580200895
12.724693173000956,0.04948010617390484,-0.21226558543819937,9.550570850218119
12.688167891632546,0.04930311388362335,-0.19872712647678412,9.53180825720558
12.743107606023367,0.08451107349535782,-0.1795699174137913,9.539700756036922
12.708889655679025,0.08997866309035848,-0.21581878163629062,9.575697014296011
12.761683525099956,0.030696103313344623,-0.2090854678743028,9.53270947251523
12.729807799513129,-0.03474499977655677,-0.19530034234752633,9.535540545497637
12.781547955068076,-0.0850294839514294,-0.20325512349699068,9.553499251232688
12.75089503296795,-0.09718980768729042,-0.18290555238927503,9.552646532842793
12.800249015595021,-0.09561949369658228,-0.18839821339167878,9.525928588878187
12.772122149269794,-0.04619975185081669,-0.2204314639664175,9.552389904034383
12.820168407436427,-0.05808153142013833,-0.17099505513240199,9.539608289738295
12.79267320474457,-0.14746275870028647,-0.18925577107356126,9.53255396867182
12.839033593454271,-0.21212740576403974,-0.1832812168421539,9.568598891867303
12.812945548276742,-0.20537016482619122,-0.21071931925237733,9.556421749879124
12.857947894604848,-0.13751363025106886,-0.20592112173530414,9.552048294584633
12.833228054175583,-0.052176746532432414,-0.18974659681373543,9.540436853091448
12.876960651742158,0.012074830347658128,-0.19354208409204846,9.54200752427991
12.853456462728497,0.005103292006218119,-0.21062239717077938,9.535275329665245
12.896026618882237,-0.022644856556355154,-0.19103033404206138,9.563627405630902
12.873547847670386,-0.05168772635714468,-0.1911892400606432,9.563196923383362
12.915000838445314,-0.03965460892240434,-0.20368718449801249,9.556574998605283
12.893767610419694,0.02862551241484414,-0.2054785972942504,9.545294350938612
12.934156516503972,0.11195858576400462,-0.19173085535489018,9.549030131022123
12.913842034548178,0.1424638320092198,-0.19430196403091296,9.542896823130313
12.953385268464302,0.1944089600395359,-0.2245358355613675,9.532659061361894
12.934899665257792,0.19617430739542258,-0.1895048302708746,9.535299612199895
12.973503637714762,0.22127238196263568,-0.19471080718949532,9.560500638674087
12.955007352085891,0.28811221497479406,-0.19369479228303085,9.549125539405962
12.992649655130041,0.3558027502807266,-0.21500055079274555,9.531753264067019
12.974997140886845,0.4331472930218707,-0.21919262366917883,9.55722574352767
13.011733666423163,0.46007457481930636,-0.20828387061519324,9.564343674367127
12.995357414786833,0.46495133341973516,-0.20697470833460685,9.556456758008192
13.032240169127519,0.5498896345500514,-0.21485476534466189,9.533527939617821
13.015901517197527,0.5878029741694096,-0.21906500937040096,9.524211833858935
13.051469741295929,0.6504361712088311,-0.22244920354192904,9.551121204043854
13.035895169863988,0.6611013214487935,-0.1839355797272618,9.547408421606255
13.070766921926474,0.6099276909384463,-0.23689608863078288,9.525263257677388
13.055796516944646,0.6721793827459207,-0.22201352682599265,9.577803667466489
13.08998692753956,0.4955291430300965,-0.18956902917257015,9.550724272917371
13.07575442063102,0.3378363104136594,-0.20644220895012,9.542990556972796
13.109309056650071,0.2735529518235886,-0.20813849460021724,9.543216542170786
13.0956693180592,0.31110175111550553,-0.19227625488098746,9.566380216699939
13.12869878351064,0.2760955141129172,-0.20335433115879317,9.545666066051735
13.11553175665844,0.30977710735816466,-0.21047108612018228,9.522131734331197
13.147960838703352,0.25131725404697786,-0.1961511159235649,9.552281976021241
13.135431643875027,0.1774927232369695,-0.2010746906737605,9.56099366941406
13.16736110461201,0.05454662536987919,-0.20762473999703282,9.547714697414676
13.155310898838701,-0.0008483817298343112,-0.18790948621210482,9.54050015026388
13.186753153578373,-0.08794272815734022,-0.19205644063809454,9.549167328348554
13.175177475623634,-0.11237811250283142,-0.201811508234933,9.538877039243594
13.206094894802161,-0.1800475106376567,-0.19589635370149594,9.559265850251728
13.194980631453605,-0.2184099495182247,-0.19187649260917428,9.544510890703892
13.225505883876723,-0.33618608649608495,-0.18756022325542437,9.529124111084057
13.214824063308704,-0.39131182386122965,-0.1727845105852466,9.533555541351301
13.244841732194708,-0.4288031887120586,-0.17583994886364585,9.557960908914835
13.234676186190608,-0.5555125184173407,-0.17340526780075335,9.55415588615792
13.265207255143656,-0.775098839459317,-0.1698719069373583,9.566240670377809
13.255529740291072,-0.6561498308558507,-0.18441706201497732,9.558052047723818
13.284721081346238,-0.49734747800609685,-0.15840879607910727,9.545583481610183
13.275262421284516,-0.4360091652867296,-0.18622514235906712,9.543534358351291
13.304139171556406,-0.3933518283443856,-0.172715953663225,9.5080802534099
13.295079391780698,-0.3766731704324113,-0.1759423388598752,9.55255559234691
13.323592705411702,-0.39427885719320604,-0.19338327380642856,9.539676548240788
13.31488993776325,-0.4145203735625593,-0.17804957063888155,9.547631136653393
13.343043137555185,-0.4403075906339319,-0.17934232254618027,9.551985633962365
13.334623272301403,-0.379216853603388,-0.18988032613016267,9.54397422258458
13.362458812195666,-0.2965789067803026,-0.18979641895525626,9.557350439803287
13.354355299437925,-0.2525074210530668,-0.16421920891863848,9.530408570914291
13.381967188161433,-0.1703338450407461,-0.18192451696399334,9.542516476833697
13.37416489392628,-0.07018094956414518,-0.1865609580405187,9.55794615576227
13.401566973278687,-0.007175901262538501,-0.20621967393570023,9.532828630488742
13.394904414195702,0.08505520686623491,-0.19129135917512458,9.545557309552962
13.422412454642188,0.24246214226441382,-0.20499182693128665,9.553978931390283
13.415941897675022,0.3548060348508265,-0.19760211755207743,9.561679221911644
13.443238306368423,0.41862097606663023,-0.21543493158197463,9.531997365224608
13.436540726334933,0.5459387534918914,-0.20213580533887382,9.556985254349613
13.462767838896978,0.6828012578882545,-0.20449115447928543,9.572283573775207
13.456334071605857,0.7620830969630883,-0.22822171771044325,9.539066517273922
13.483199335122082,0.8344248363764386,-0.22935758673009546,9.533806143358635
13.477046614970726,0.865719351006394,-0.20701214770420043,9.573353016934501
13.502757188713488,0.8661120661597463,-0.22577864638715428,9.567325709379146
13.496741886297837,0.9365115424748053,-0.23039033131560796,9.543655761223706
13.522205297014017,1.0743649762384861,-0.22291696106047662,9.530922728346347
13.516498227515784,1.1678991918758903,-0.22630378822826747,9.56782121587692
13.541682240060505,1.232091165635979,-0.22016441562978603,9.555491118448657
13.536202815084675,1.1983161682657621,-0.21280086209018403,9.519164937612354
13.561260372193447,0.8942996089136953,-0.2183342659152553,9.54597676203111
13.555928388246677,0.711947298770762,-0.210969801030636,9.578698305795845
13.580706520755887,0.6541752123134559,-0.2248039209020061,9.568294364086057
13.575666019055069,0.7546143485781358,-0.21855889856735966,9.542544952195254
13.600230226374693,0.6586190383519757,-0.2025648250087927,9.525690834126756
13.595409610389813,0.621752788118576,-0.22584455520088115,9.545909750492582
13.619755327804132,0.4634224925083797,-0.21905684863041672,9.545659385673236
13.61514522855495,0.3500004073650948,-0.1905757012471465,9.534702241599081
13.639193178570853,0.17642413031748633,-0.18971259414478428,9.532172985292096
13.634775952267605,0.09152146918266559,-0.20241638192225744,9.558606967884444
13.6587709685046,-0.016592461379895056,-0.15488739823168346,9.55547376283621
13.654543835341302,-0.24784186250706297,-0.1736603589702202,9.535717237417716
13.678252203367819,-0.38563680267581274,-0.19866427558487387,9.54635435824954
13.674257603705176,-0.45490866244359146,-0.18184750733759206,9.540007329935971
13.697693500711374,-0.5550922299203895,-0.15498859964259937,9.565771135388395
13.694476380028641,-0.6777438773867216,-0.18074041473370836,9.544555979769486
13.718459009129251,-0.737176593950024,-0.17070766492900577,9.523690080356403
13.714558213650031,-0.8740944501831793,-0.17281516111887407,9.540866128486178
13.738888823330273,-0.9101043345335953,-0.16698478188862764,9.569068776710271
13.735296529340564,-1.0037950137399607,-0.16635870110280898,9.532181083281081
13.759402735789665,-1.16022080549939,-0.15551813718090188,9.554907142997003
13.755960599014893,-0.9844593723605951,-0.17150251515230647,9.558314765260047
13.77933260921105,-0.7133807495495679,-0.17314493309694498,9.537490817478592
13.776809963132509,-0.50223529958117,-0.17815912248626417,9.550288597438756
13.799732815357949,-0.6115617767764321,-0.17451036188760283,9.52166842352903
13.797618124767158,-0.6749292973329075,-0.1807320061420714,9.548912685913717
13.819878868280307,-0.64391792656574,-0.19048944540665408,9.564426287664054
13.817191277616415,-0.5484226099268593,-0.16994167166377497,9.562439861486075
13.839457635604138,-0.5068549045301801,-0.1635586193922841,9.521921213273675
13.836885361634486,-0.3595580744549367,-0.20369897875966467,9.553393083130409
13.85902419139119,-0.24285936329323285,-0.18984721284341705,9.5660208053575
13.856590954981131,-0.17539823315997868,-0.17016797512855444,9.541810649750165
13.878574569834925,-0.1255719956960852,-0.18847602317893195,9.569945070040516
13.876233983224742,0.03228190410302387,-0.20715280175569203,9.56261040305413
13.898068888919095,0.17126591661540744,-0.19198726996269483,9.54755285473732
13.896060468760142,0.23964367554350355,-0.195657494067763,9.571244478431685
13.918681059618937,0.4182617685676028,-0.20779932912730736,9.54165781548691
13.916611208309781,0.5655362908828849,-0.2026869412640833,9.543871080699448
13.939805114339508,0.6744313641973115,-0.23680613915523102,9.556584210722397
13.938414441860784,0.8291932038789811,-0.20889463030858976,9.536493089557561
13.959645053834333,0.8542069446503266,-0.21928931879166602,9.54215002430537
13.958102132867083,0.9220914942037413,-0.21973546034579616,9.560000055491852
13.980082741178082,1.061866630036239,-0.22686857588809844,9.54281584396921
13.97910016735043,1.0698287238696311,-0.2307426713351557,9.540239292339225
14.001012528249431,1.1089613700791368,-0.242987974731209,9.546119902531995
13.999221917150361,1.1794882489034644,-0.20730817859553435,9.541981251621198
14.020458632003105,1.1569786705496363,-0.2548315574491204,9.551623584132717
14.018935823818659,1.3123495150985798,-0.25945805949462475,9.556908067934991
14.040023139678933,1.286337699406915,-0.20856710742462348,9.542777278576745
14.038629037798712,0.9629181555020598,-0.19818473927140867,9.51134749803713
14.059609442537038,0.7574390840136099,-0.22934969687376697,9.550299966734354
14.058260474427152,0.766748124450602,-0.20459003053551725,9.550123399041434
14.079079519648587,0.6798475612985214,-0.2207091271366144,9.56738185955263
14.077938509105358,0.6485978913323859,-0.2286746026529891,9.535011603786756
14.099417259168671,0.5611340043106495,-0.22011990277315024,9.538805644082217
14.09871215298095,0.45064350052096114,-0.21771705202801717,9.556437064770138
14.119179505131747,0.3320103417162242,-0.18790516451422956,9.54641012089342
14.118360431820768,0.23263265722839643,-0.21176816077698327,9.557957827993086
14.1387760449085,0.13246471673440577,-0.2099057760528031,9.52233293399689
14.138038953085653,0.020332181022434517,-0.21613293415221463,9.561457244321174
14.158328467215185,-0.0838671894744944,-0.15957193277286563,9.547860570274104
14.157644305397048,-0.2839806134668105,-0.1860249016482231,9.531440249012995
14.177901154889446,-0.3916491115586554,-0.21099204992189516,9.554521290711481
14.177323096098096,-0.47724312984826783,-0.17805038155975186,9.559566560081374
14.197495784914477,-0.5366482029233556,-0.17136341516680442,9.55356174700706
14.196985975337803,-0.6231068233232163,-0.17816320389993695,9.528567852746358
14.21713282337656,-0.7135127763591405,-0.17105779266697507,9.541817582841512
14.217602010738142,-0.8268645270138224,-0.16274845192662046,9.53593607051205
14.237725331409159,-0.9098911331924427,-0.1536513329767328,9.551787160932431
14.238215308096354,-0.9356199027880611,-0.14276133276071656,9.552168051631197
14.259593534286566,-1.172565288805107,-0.13939060866818895,9.562020606054066
14.260014237894465,-1.0849316125132766,-0.16442624097079178,9.579719765694009
14.280049525695125,-0.6475149929123805,-0.161341224165057,9.577222537310032
14.280810454435333,-0.5147409667237389,-0.18862430959730767,9.51713831051316
14.30012403138222,-0.6441497777255678,-0.1728347339440073,9.501091776168526
14.300714368836099,-0.6646970154476524,-0.18973607988666624,9.566155293824512
14.321747090357361,-0.6086715176733403,-0.18305336039107903,9.540401376575025
14.321976375376298,-0.5401066841174235,-0.17426340420112568,9.54106632839746
14.341386498551268,-0.4717660339195948,-0.1739887109901573,9.541142610541431
14.341644334980197,-0.31584285311593824,-0.192455689175876,9.535134340246195
14.360980622207148,-0.22539542671130894,-0.16985699832071657,9.527774642093
14.361317333763948,-0.12935447888029222,-0.17291089055400358,9.542677440801143
14.380575789665523,-0.06891614268805973,-0.1862083706575814,9.580068875728218
14.38097289711791,0.07787940196594986,-0.1979113963032988,9.54585490082929
14.400061085827192,0.1700743079030972,-0.1911595686799054,9.530203779652556
14.400651567239889,0.31122096817397954,-0.20387303810282603,9.544024331637425
14.419619759041161,0.4515882594052251,-0.19525478772772317,9.57103310712322
14.420906297094591,0.5872567843284855,-0.20552310993648532,9.527512714376996
14.440366856134286,0.6755014031774662,-0.206415122672849,9.53249713155146
14.440875029435896,0.8221559479471959,-0.21234195629761887,9.561614101119408
14.459898589063622,0.8757403855698987,-0.235337193661482,9.54467156335848
14.460543161945386,0.9779485565741799,-0.23021422640848138,9.54839148561644
14.479468448994123,1.0012169381964617,-0.22202383260036035,9.532623820765256
14.480174922005869,1.0389587095851525,-0.24980571806931323,9.565495495427577
14.499022684283666,1.075982961983429,-0.23900128673614504,9.542431809920018
14.499874678891691,1.176084978223003,-0.2399377304685524,9.5456108961847
14.518558918358142,1.1753266497512176,-0.22326735463686434,9.545341663614686
14.519942388620796,1.2538465697571601,-0.2376852699757818,9.557662073988213
14.540219367687744,1.227604224245156,-0.21377281592747877,9.524873108606345
14.541073336470323,0.9458014371302599,-0.22844891502395012,9.544284630771221
14.559855247387926,0.7579154966186841,-0.21816296973121233,9.551555771319814
14.560695885545124,0.7172527132861337,-0.21030280699860102,9.559177781083608
14.579743071660154,0.7307158040728445,-0.22926175368285945,9.534756934934057
14.581513258292652,0.6749226522411862,-0.20461325549034215,9.544408366193668
14.599940688732122,0.5716697791528728,-0.2283235438249382,9.54580998012996
14.60109576302963,0.4301658457848814,-0.18699194336493857,9.559068886584427
14.620286569527027,0.28915591335965707,-0.20443521140362747,9.562138522685947
14.621853249031037,0.22255519938767473,-0.2006570136342052,9.565370170874179
14.640054099751342,0.09192083991639884,-0.20025570566499076,9.538846112938337
14.641425773434262,-0.0062032554540335455,-0.20841319989326926,9.55256930385759
14.659554885916938,-0.100377207996376,-0.1526524903082172,9.545131075684397
14.661200777417557,-0.2858151248421362,-0.19369052549298363,9.57790859633108
14.680288251769086,-0.4339965678545367,-0.16815377370446186,9.541859029047977
14.681652884879082,-0.4852081483181781,-0.17598824550415199,9.528501505872736
14.69986752826813,-0.5647694158795113,-0.1533376662536838,9.548196462104478
14.701326159875336,-0.6883836287926534,-0.19596569879915568,9.555174041039253
14.71946809992934,-0.7636706561582539,-0.1754784672126964,9.549340784707443
14.720962780338024,-0.8565784224518488,-0.17976385832561265,9.528554579254042
14.738995969986664,-0.9270835737625248,-0.14511205432749713,9.543822595056362
14.74060453329629,-1.0427697554059714,-0.17675463487903528,9.55131575012727
14.758601572312699,-1.137170636980778,-0.1726232491944871,9.540886771832596
14.760268910745792,-0.9841444470185027,-0.17253326583585113,9.556010007041499
14.778203891237158,-0.7033833032230964,-0.14567055376158158,9.575322338658705
14.779933291511629,-0.6076131660593773,-0.1862735117778113,9.546902755949647
14.797747758185965,-0.5979847320408338,-0.16188306501269004,9.526527340250334
14.799543460975498,-0.681709716510469,-0.1598670506832628,9.554859992528959
14.817336200957076,-0.6583245314872643,-0.18605422859822882,9.538254837576535
14.820042233327884,-0.5719212092705142,-0.18529701369415438,9.564351107640466
14.837958164263787,-0.5035159766765539,-0.1729264222299739,9.531980810935917
14.84058901470487,-0.3650105063121237,-0.20294886965957,9.55895519635069
14.858569734928764,-0.23493472518085673,-0.1813349665850578,9.539195354000645
14.86044159293807,-0.14560586499566547,-0.1718569884363749,9.542945783043988
14.878116506172097,-0.08396702106672396,-0.17904709345106687,9.527023119028904
14.880318513024,0.0978594068848365,-0.21257670640856377,9.548909764163986
14.898832910819689,0.19918781410919364,-0.1852889446788544,9.52832024470619
14.900670418761365,0.27341161564127114,-0.19454610562604846,9.551681030453018
14.918403946072473,0.4197667751015841,-0.20870500742680242,9.560046971455721
14.920331629028768,0.5460587636126759,-0.21856655222130558,9.538596927957965
14.937944690806388,0.6561176360356265,-0.21904938965179208,9.539038993080574
14.939933548995862,0.7900302355455772,-0.18988891291567772,9.568329217804003
14.95757741595264,0.872321039871575,-0.202041227198298,9.530342342131327
14.959530556123541,0.9435602813761677,-0.23996818241170956,9.56003990055317
14.977703759037794,1.030067799510772,-0.22236789619021233,9.536151428642476
14.980316606733451,1.0648402661880796,-0.22338914389913353,9.550683954732287
14.997694294685983,1.0748920534978648,-0.2334829733769606,9.550770509917227
14.999919243115016,1.1476222487254994,-0.23018912014677423,9.560729495650351
15.01737027933445,1.1769316109641872,-0.22055606682229487,9.53711234987268
15.020419731360777,1.2606256617854628,-0.23186430280447995,9.562622240200376
15.038369017065664,1.2307247256296612,-0.2459511278204772,9.53928706341297
15.041288313262926,0.9311824115414011,-0.2165502774497508,9.531213975954023
15.058454297244793,0.7373514800123746,-0.23617096446905253,9.547550667943112
15.060848007381496,0.719168675805252,-0.1996738908265543,9.556959615856462
15.07804152317024,0.7146945764850087,-0.22042632470670526,9.558002450011498
15.080402354886946,0.7100538755321669,-0.20568946250012593,9.536824634506525
15.097959087615921,0.6294558408487323,-0.1998292822371914,9.54296724822203
15.101197176867391,0.5007653104446917,-0.19586998815860354,9.558393272002455
15.118171635839602,0.31056606354615623,-0.20434727582519482,9.544960027816343
15.120786435166533,0.21560606321135686,-0.21929167797732532,9.546117421922126
15.137818911856352,0.1063684513424522,-0.19786250851864745,9.535903593810854
15.140291465570035,-0.007270372014169956,-0.18023363076394996,9.535071566543467
15.157298946609005,-0.10109099002290906,-0.18881787605371847,9.548583552986946
15.15989242105288,-0.3017317315248007,-0.21743794322132556,9.555563355070113
15.176874367639641,-0.3652136243666321,-0.1933991042281447,9.57100266399535
15.180239064190149,-0.4634211812840814,-0.1676917708394872,9.546464628167353
15.198350920806643,-0.5310709985334156,-0.17288536090640633,9.543146858533555
15.201318038030191,-0.6889645019031018,-0.17639083582655107,9.568197782576865
15.218122499389821,-0.7647959970086643,-0.17499032499274172,9.546549231137107
15.22103697101471,-0.8672501751110061,-0.1658545594722515,9.525057284301452
15.238780113502436,-0.9041094677362954,-0.16500123435411704,9.555925658029164
15.241517900980615,-0.9942814116078328,-0.14840644268164963,9.532984175461285
15.258431147322499,-1.1859410705334192,-0.1430613154893302,9.546710849512673
15.261106541742146,-1.0159607712828378,-0.16616323149679704,9.558051394563215
15.278486847115108,-0.6873847612762323,-0.17661371676974555,9.534476317175017
15.28193076481342,-0.5716079155918385,-0.18164354677306535,9.540191547129583
15.29853260699433,-0.6255833518432633,-0.17949740893655075,9.520479685168393
15.30152128787586,-0.6619334893098539,-0.1603530660995977,9.57325484040537
15.318155332169752,-0.6325741402013505,-0.1797281098418494,9.54256971317255
15.321081124328296,-0.5724814603964429,-0.17489364260653173,9.544515403417984
15.33775408077359,-0.5033885681668279,-0.16092559954619226,9.535797034513756
15.340719485353977,-0.3763469687558945,-0.21610763665418167,9.545117161760047
15.357392778724472,-0.22874559988482163,-0.1796063986486695,9.566467534573246
15.360321196861321,-0.16069783244370026,-0.1697078247243771,9.535567685732136
15.377262549302504,-0.10365245777534239,-0.17642994491426103,9.561245189164898
15.38111231444194,0.05838855325498697,-0.202984709566813,9.557848261140402
15.397465142177495,0.21515368144388508,-0.20279944925295276,9.520993073698946
15.400651934505264,0.3329453733724858,-0.20505989092859808,9.54967190026566
15.41705156476636,0.40347739231525165,-0.19723673403598932,9.53439528762649
15.420312750306499,0.5272208591367479,-0.22617948402741042,9.545378540952909
15.43665328184113,0.6401733223291458,-0.231543510450217,9.540165383682295
15.440584558341236,0.8196701274251723,-0.21453818442910727,9.545943759764805
15.457374218303753,0.9043835937747077,-0.2243692152713844,9.539434133734495
15.460460751704932,0.9664391594372377,-0.2238521887920948,9.567156902577812
15.47697338905534,1.0276494854863718,-0.19723905783801385,9.525142293783471
15.480134138910858,1.0551671630115604,-0.20244926351533787,9.542203700751429
15.496549571450814,1.0902426779456673,-0.22988440447206074,9.548833458369922
15.499736255317938,1.1717079202838734,-0.23841255328731173,9.557979094552046
15.516168777104973,1.1768403244397725,-0.22277913324120782,9.545203833533735
15.519372055829402,1.238958693379102,-0.239195627835643,9.552405254671095
15.53584595267566,1.2719811609323723,-0.24176213601206267,9.552254422475228
15.539902686906052,1.028254341264614,-0.21890975507669333,9.547519893228117
15.556792853949796,0.7413732701573682,-0.2097290744887385,9.528396652440934
15.560795193151819,0.7425529676618431,-0.2121671990922582,9.560093222695036
15.576816284426423,0.7141114412434302,-0.20997795336820044,9.543905080379682
15.580727876606696,0.6738977770077232,-0.20257048374076103,9.525943542529737
15.59762235033828,0.6205712864006111,-0.21121262032396115,9.523297328788395
15.600896714859338,0.5383863055169634,-0.19659483489937427,9.564704564892716
15.617186996285891,0.3973651020684424,-0.19425349304596454,9.547539801040964
15.620556423953643,0.2046831174029685,-0.20711691317093547,9.55109201473443
15.63669964425211,0.09711473776162752,-0.19482119669135728,9.532914334121854
15.640951703912425,-0.02015286103987875,-0.2317261986031198,9.555132003188627
15.657384911569874,-0.1354197212684499,-0.15878119538869692,9.53105927723099
15.660668926558388,-0.31204207711517834,-0.18260797871403817,9.54291380361602
15.677702685880456,-0.38381155367269154,-0.2018811462518794,9.562370351295224
15.68144545174773,-0.4511761319454014,-0.18117989522659242,9.541381150057502
15.697539158836879,-0.5407926660744875,-0.16164077733309706,9.536614932979784
15.701029720566975,-0.697918810989906,-0.17899914097173053,9.545065671197534
15.717301076280362,-0.7301574245367026,-0.1504801566246042,9.563220739471335
15.721733592951049,-0.8875432916094498,-0.15284848822209457,9.534298415840045
15.737688301259805,-0.9129256345425861,-0.19364373057260958,9.553459717730977
15.741838798851683,-0.998125061028335,-0.17342822675433006,9.54096245456133
15.7590012119644,-1.1897971909990257,-0.17925868855268942,9.542560441080987
15.762981359376399,-0.9841528491933026,-0.17036293907729208,9.559298629349254
15.778925501519737,-0.6901264767077417,-0.15785371980134902,9.59135472140981
15.782588603791371,-0.576644821492994,-0.16948064610464136,9.529790953777544
15.798564972340872,-0.6237275867174878,-0.17863374158028925,9.51590020452722
15.802207118765443,-0.6340686312031868,-0.187908199345037,9.552876756003771
15.818058008118014,-0.6631510306583507,-0.1802173305018765,9.556679752824774
15.822786790878363,-0.5589488438224588,-0.1807361034942486,9.541798264148223
15.838770250685773,-0.45216090227223427,-0.17540701724231678,9.53008647520547
15.842424027757525,-0.3320541060215792,-0.21328032421235762,9.566483392405575
15.858348213474638,-0.27323220434638756,-0.15954539065708467,9.533872216254206
15.862077935252197,-0.29981991225765064,-0.1613967723622424,9.526794424814396
15.877963912798075,-0.12240077161758356,-0.19134127243525823,9.561487369166223
15.88172983054039,0.11937326813915983,-0.1926343724743664,9.5538688093045
15.89757815416253,0.26413657637868304,-0.19256099063190457,9.553915306410946
15.901345157726745,0.38156499351192114,-0.2094988174659774,9.542218605068356
15.917091669488018,0.5047407543680849,-0.20739839312071545,9.53686127686841
15.921183231842098,0.6158783814982934,-0.1992911910290288,9.534337295027214
15.937826213963051,0.7053236918171074,-0.21127010044040231,9.55090940442423
15.94152451927841,0.8519517722655006,-0.1980032947528318,9.57027892917548
15.957410698318084,0.919819413433657,-0.22373503572091677,9.528643379485075
15.961153692069429,0.9847718229652879,-0.22007316285266304,9.54592970023494
15.977024052927765,1.0199334886133222,-0.22443606109477343,9.532353453128964
15.980818095841245,1.0330332411991905,-0.2216520311346443,9.551493327380292
15.996549480710891,1.1298768994941806,-0.21978696615225599,9.534126391232814
16.000434123459765,1.159252855239988,-0.22897160333308283,9.572146465346211
16.016191619519923,1.1858299540926385,-0.24567494792987646,9.527348688952744
16.020076422482635,1.2950628363767513,-0.2325281178814822,9.56548373761141
16.035814326772737,1.2850271460249054,-0.2261203967417129,9.525773466047859
16.03972284753594,0.9842537328605315,-0.2105326705297763,9.556303630645385
16.055410907797118,0.7541865986397334,-0.22755633886548582,9.537279005041542
16.059293379304837,0.730601584589252,-0.21944890150443028,9.568530070571132
16.075007210661397,0.7382652661495414,-0.225675038098377,9.55146997484915
16.07893992012234,0.6700626823672131,-0.2035646238343484,9.554435972364212
16.0946297524145,0.602441220784268,-0.21617284541081846,9.52843591891854
16.098586198520913,0.5178155014490192,-0.21184143642375725,9.555383336691632
16.114234073452796,0.3429189538231452,-0.2056604937267749,9.543270913692469
16.118117500859054,0.19644872304993063,-0.1948883203633759,9.533057718115128
16.133843262146012,0.13953014378501452,-0.1942769827207762,9.53815253451434
16.13776690002681,0.023345941736750562,-0.2075150165724987,9.54792916851012
16.15422496285793,-0.09180409230935918,-0.18219741378175422,9.52507259565796
16.158487565434957,-0.2674797377478496,-0.17908313529629874,9.558057061753992
16.174005327545814,-0.38083416254645974,-0.19742263438163402,9.570719135307712
16.178097452076596,-0.44425796663362976,-0.20151074539415714,9.523543061795769
16.193645483328016,-0.5356881169320868,-0.17635106574925918,9.5383083979106
16.197722906976033,-0.6540502180116398,-0.17715835272233274,9.56548645009116
16.21320521014507,-0.7560272148010103,-0.17117823990622982,9.549711978504565
16.217316749641384,-0.8564775656485568,-0.17539208024803837,9.52765555062318
16.23283335229783,-0.9133416676090584,-0.1481800589948941,9.555284487329317
16.236958606785716,-0.9341185445873669,-0.14740619446612313,9.55975090730536
16.25245710645625,-1.1821768681724973,-0.1591170482074664,9.526987081251669
16.256599756964757,-1.0961639828626237,-0.17118401178184353,9.555887887402974
16.2720048614562,-0.8401744436931743,-0.15006860202126587,9.581152088182666
16.276263420545572,-0.6484018429809112,-0.19965435846301807,9.526748761158702
16.29264661052243,-0.5941131842259086,-0.1916086141494237,9.544864012364007
16.296732323065072,-0.6500751412152107,-0.18819804839601273,9.538043336120788
16.312240349967247,-0.6495303328560754,-0.18024638682049873,9.549707300779565
16.31644146207105,-0.5874455863475372,-0.17143303961423234,9.575259863259914
16.331875291078763,-0.5076479851270373,-0.17782690385832817,9.541989428708057
16.33608465257875,-0.3961623100777195,-0.18483593624446504,9.528863577147382
16.35147819075265,-0.3234587895050825,-0.18406790138344553,9.55854723168282
16.35565347328428,-0.19470598175069756,-0.18139068593620516,9.566748399401298
16.37107167967699,-0.12140389379657375,-0.20070654056070297,9.560061685746858
16.37529871959345,0.07121428032726232,-0.1963280827907872,9.558024790692803
16.390696010690668,0.12476275508907833,-0.17540858587388825,9.537598315867529
16.39492867884636,0.2170842323579072,-0.21289567096771345,9.540848338492307
16.410281754961083,0.3713619755920494,-0.2183738683761189,9.554431031484752
16.414533590133047,0.5350668622748702,-0.20904589332024012,9.560640755147764
16.429875826476565,0.6071211311718157,-0.22328998913528522,9.537241458032701
16.434182133117734,0.7876208148555556,-0.22721966363508042,9.532173009626097
16.449489221707562,0.8680827169683984,-0.20238044527441376,9.552450141478957
16.453845403743134,0.8805270085712371,-0.24482953081632103,9.546752110099769
16.46906234602417,0.9807560065664656,-0.2094190860494505,9.535369551709621
16.4741031913738,1.0259593717839635,-0.2353671668880584,9.556572772593416
16.489832013863865,1.0489369908425545,-0.2271496600748447,9.542434532543924
16.494005694122087,1.1275024349247005,-0.23197989314255935,9.525809382317789
16.509342529681472,1.1795717431493236,-0.22059422939785245,9.528929458227767
16.513616720512296,1.2338310524355787,-0.23365613021545317,9.543279375743
16.528958248135456,1.3060678574306188,-0.2451506304018246,9.558327460477111
16.533264158526325,1.2037157180297398,-0.2383832902130883,9.520439478612628
16.548580017309003,0.8912257919567056,-0.20350893552171265,9.53523567545027
16.552904267861695,0.7332527009914711,-0.23406338412558836,9.547757071614308
16.56814915632654,0.7178009398796197,-0.22880826779539362,9.56996770797579
16.57245918580523,0.670454588146986,-0.21624128343396617,9.552310473907552
16.58766296199037,0.6338668657258362,-0.17816900729173207,9.528486021360987
16.59214960641573,0.5518190007471725,-0.22868997664672636,9.560674360362896
16.60734875471802,0.4537497541736432,-0.19371810173675752,9.565338438147386
16.611706847390415,0.29579083776245985,-0.22880058190366329,9.550443577923575
16.626972857087424,0.2026426269976352,-0.2061522575567791,9.542392596136537
16.63134682886594,0.06825993059663511,-0.2059472260378013,9.529394963432559
16.646518017129086,-0.024799981563877062,-0.1928332334582092,9.559858033675955
16.651004937461487,-0.13005507420521634,-0.16340519540250678,9.556509601374856
16.66689104486419,-0.3561502367424782,-0.2032727231416938,9.548946430825135
16.67267641604074,-0.45181874612167494,-0.19192291408667153,9.54609112418458
16.689149300181025,-0.4949295353293275,-0.16239040539275665,9.559596647517784
16.694938382167738,-0.6107496207872752,-0.1852246127986693,9.537712101204626
16.710617671556097,-0.703154463156364,-0.16056088145006897,9.540702686360905
16.716070762217775,-0.8424030333409497,-0.1601283559182108,9.544399462701694
16.73210370703104,-0.9253299085749598,-0.16172982833736568,9.5645855106373
16.736439215254176,-0.9832218131923512,-0.16618900353716315,9.538008747588968
16.751633440968128,-1.1754507205752858,-0.16897113132612257,9.514768730883072
16.756076048404143,-1.0876159326151456,-0.18355306083980638,9.564728991582745
16.771253864043775,-0.787387203753856,-0.16544738067481993,9.565062362377315
16.775725222279995,-0.6170128139732167,-0.16627609976734734,9.528559677276375
16.79085760030889,-0.5877894589058394,-0.18150959470682063,9.504152453755674
16.795402914666557,-0.583709465426797,-0.1552589171829386,9.57918569980086
16.811480895242603,-0.6219254766302527,-0.17344848887644146,9.540810886595127
16.81595870288837,-0.570549872486704,-0.16396309221966576,9.565220567033828
16.831069613179068,-0.49507638380855956,-0.16297100815194918,9.556484099190005
16.835536762099753,-0.4169417385014389,-0.19632819500680135,9.540940380463988
16.850696940355633,-0.29101522132201946,-0.18932766147396773,9.557822444473896
16.85517354097306,-0.24128075544585162,-0.15602132859196127,9.529288935572922
16.870329888354608,-0.15621259518532812,-0.17577099053009748,9.514518653141268
16.87480356834119,0.01643391094134355,-0.19028259743614256,9.563040290271891
16.889961234442456,0.15178269083866844,-0.19363044289297102,9.544188275679403
16.894315888152295,0.21856321261800243,-0.2004308244707158,9.539022634844166
16.909854318261363,0.35398273691350657,-0.21529273490927997,9.542192763528437
16.91509581386927,0.534064698484,-0.20668245997320653,9.553781537780031
16.930060765835925,0.6493939094413436,-0.20928919909027427,9.518690533521816
16.934680027192684,0.8084189354044908,-0.20299479579065924,9.554877663404351
16.94968789889231,0.8946941489348128,-0.21934784755737047,9.547061069455689
16.95433320143218,0.927261169075846,-0.2298524991087138,9.536893837749178
16.969341106796303,0.9870066121014759,-0.2193794098579654,9.54286303912816
16.973922132941173,1.0242084975466728,-0.22829823425623755,9.542648845059379
16.988903849367617,1.089231027992164,-0.23314043503824783,9.540589216484497
16.99354372071987,1.156822809156096,-0.2286913625977604,9.55113182979475
17.00853592834437,1.1908203797181791,-0.22554272152096558,9.535408933872255
17.01318034441462,1.226090156771162,-0.22694037519950244,9.563823742610621
17.028165618857905,1.3623789139502636,-0.2611442474512468,9.543677684450188
17.03281578146019,1.2073939171380503,-0.23477650211330217,9.53846388277203
17.0477265997704,0.8812868924139848,-0.1975125727493537,9.507651866531347
17.05240721358052,0.7198697456807076,-0.22179468292723753,9.564214743812643
17.06734281019002,0.680928878644163,-0.2215482730649308,9.554880082337878
17.072069725520382,0.6549627445652705,-0.21170404506414178,9.543639133417566
17.086910634540477,0.6633265817201358,-0.1943092614511891,9.531898407216808
17.09211833413013,0.5344407037475862,-0.22202691266456764,9.526494504715162
17.107712268335156,0.3623130720467906,-0.20638096701624434,9.554522405723375
17.112217569564308,0.2602326014413443,-0.23347732531374157,9.559152590160197
17.127259483686114,0.21397019582023005,-0.17291777530687477,9.560464929065004
17.131806104093755,0.08121854713993992,-0.2022386571829409,9.536963159561298
17.14684450279398,0.023854251315712827,-0.21430064062958695,9.538376194483018
17.151452389726412,-0.12113725071439771,-0.15367550642893227,9.55929518599058
17.166472860885154,-0.3480567867227713,-0.19530842249323813,9.550249766020961
17.171085680736642,-0.4496347339070472,-0.18853434906300093,9.550929411491744
17.186116399015287,-0.4802727631393864,-0.20295183807572417,9.54353295765603
17.190640814536785,-0.5765172745027117,-0.15879619548470406,9.562231255765415
17.206436897603748,-0.6965983213329435,-0.16960352996217476,9.546954278506664
17.211397986958353,-0.779941690170809,-0.1764672481604567,9.5535463133784
17.226197532409252,-0.9643519407890472,-0.19961604515890002,9.538312083286527
17.230986254190796,-0.9804377860961331,-0.1625145318562831,9.554177467929405
17.24583999709018,-1.0759859145915767,-0.1451469870844487,9.536532557282104
17.250596182022093,-1.183739848671337,-0.17743401727688196,9.544151129408494
17.265446236219425,-0.9616007613881844,-0.17222053571572754,9.546173921301977
17.270251632430043,-0.6569063545558598,-0.16134530767208993,9.571531717078114
17.284972792827457,-0.5193126658527788,-0.17349275595137262,9.53543738516747
17.290407924114213,-0.5994629001157046,-0.16290343170294916,9.538477800077867
17.30563599179403,-0.6381401927325536,-0.18916757321110836,9.551819462339948
17.310413774986568,-0.6453293325632337,-0.18912170067463904,9.550478446916507
17.326363966082553,-0.5364910299873539,-0.18013917208392297,9.54976263996526
17.330996526913523,-0.45108514399053506,-0.16962826219361044,9.561460953292723
17.34594475689104,-0.35083978108792285,-0.21509365132747726,9.541331733729027
17.350639564666267,-0.30013716577230154,-0.17421831782560612,9.532347331099565
17.365567412432583,-0.17013084821139104,-0.17039414350582566,9.531532799799999
17.370282078902914,-0.06395553298563003,-0.19062849988589267,9.571047210854623
17.385193260155916,0.11857282680843907,-0.20326991378826545,9.544449592366215
17.389867824873456,0.22951088741861111,-0.1940480084391379,9.541928242636999
17.404723572815985,0.28489946179556436,-0.19880309563239865,9.564155421151003
17.409517702064406,0.42869942363948055,-0.18857227796994902,9.569021793893759
17.42437245041348,0.5586927979095345,-0.2131962048456449,9.53507338988771
17.429168888210828,0.7206313064251717,-0.20355427640985974,9.550636403063157
17.443968419037972,0.8702533546426616,-0.2098037142146771,9.544314737567156
17.44954346393108,0.9068346213036171,-0.21512361303982486,9.547788717384837
17.46468609170377,0.9826548533815561,-0.2229229328499463,9.541995041852394
17.46935527282855,1.0501162845794134,-0.21558646642764018,9.528806042134226
17.484184496024127,1.0878816281151444,-0.23940815088545322,9.546401977343036
17.488957524795023,1.1255264415852717,-0.2019406845599893,9.543549491904503
17.50377915137461,1.1757809321851744,-0.21495731394193968,9.557875864002643
17.5092321240143,1.224989920644675,-0.22792514714213202,9.541471853171009
17.524529535789696,1.2954188398302826,-0.26416101552875126,9.560635634776016
17.529250741758474,1.2333044534571023,-0.23164778473874878,9.534228847182657
17.545152569919264,0.9228215070634516,-0.236950101733475,9.532327861520908
17.54971950217679,0.7483877403086341,-0.2212798192895386,9.557202336705453
17.564787113804528,0.6803330757123571,-0.20228876087535394,9.563874286655198
17.569266769628264,0.6617357582108568,-0.23521544391950133,9.534874274372017
17.584908631530524,0.6303955920739231,-0.2190970926773651,9.523317824051535
17.590082923328815,0.586950487613478,-0.22189037080965737,9.545140466123373
17.604972673172817,0.47917180660707637,-0.17907044215695864,9.564334384607413
17.609558711888436,0.30089719146418104,-0.2119341884976021,9.537027988591822
17.625009985550225,0.1929143586591341,-0.20632981318112395,9.55909225580717
17.63122610713489,0.04234223271806173,-0.16840010649314233,9.531919262832785
17.646504060377794,-0.04963292398113286,-0.17838822345055252,9.544532244663639
17.652026312732456,-0.18090372994107454,-0.16693934479951975,9.554876226756353
17.667504719280455,-0.3831369803776595,-0.20939862006389987,9.554085553044745
17.672620778599693,-0.43045391801877375,-0.2094794826007138,9.536666816519533
17.687275226158867,-0.5299686833764443,-0.1634382154394697,9.571788650524514
17.692218847480316,-0.6227895640674619,-0.16714326121993053,9.55023703410415
17.706922870571496,-0.7119715894339731,-0.18656535974808616,9.544917287823388
17.711809929183126,-0.7867223691054815,-0.16462998050914449,9.541210193195397
17.726424027951573,-0.9517394695092593,-0.15546404417836343,9.553441882695871
17.732149990494772,-0.9624353416615911,-0.16048638935268936,9.561360175191485
17.747209021751488,-1.0788302427763568,-0.15754203319652682,9.518300075465634
17.75195473880837,-1.1557658514904559,-0.16882199748202958,9.531840911677612
17.76680671889145,-0.8799139132569155,-0.1646861508137417,9.547928101869926
17.771600477115694,-0.6365170911832075,-0.16333144416610518,9.554001350842576
17.78640970243934,-0.5635662107957048,-0.17909781949797401,9.504712918539205
17.7912224969231,-0.490582056110895,-0.19948814009930652,9.544918258767536
17.806065873494845,-0.6222094392971516,-0.1687544811519095,9.555691540039723
17.810710547410253,-0.7025753938853955,-0.17533213140774775,9.554442070127694
17.826118728795894,-0.5876462679507488,-0.17194067685462458,9.549917447132765
17.831538499644562,-0.46920236724233144,-0.17941705314631837,9.550284596798807
17.84613185547007,-0.3311197107776017,-0.20004209262615458,9.54703646924236
17.851167341752642,-0.254355530295016,-0.1871000511303451,9.555708672810805
17.865730438358714,-0.17760762612990885,-0.15971522380613068,9.504101544202358
17.87115436685222,-0.02992174719651606,-0.20419716024986556,9.539032862966694
17.886429015029453,0.17039371253420643,-0.1957231143057004,9.530836925741548
17.891618086393677,0.24441264824202838,-0.19037877202234646,9.558278536591583
17.907599733804318,0.3424233971116781,-0.21020197924421635,9.555324567694816
17.91293398670568,0.49482872862864663,-0.20968938067287085,9.544313822096257
17.92768861757262,0.6288568910215948,-0.2103914683403462,9.534604820372452
17.93253480176382,0.7826720389509382,-0.1981265063435272,9.55445376959757
17.947331654485254,0.891784018126507,-0.22129809669212339,9.544697062718912
17.952163500358374,0.9283826694649318,-0.2328257632005555,9.548023852048901
17.966926212431705,1.0113788470652643,-0.24325424296064588,9.547721792243058
17.971718420289694,1.0832910610135849,-0.2172098670932264,9.56176233672178
17.98656820853735,1.074256137670824,-0.2343053185286994,9.556569051444168
17.991308253222975,1.1491860093057191,-0.2295201271857071,9.537851273876296
18.006872294528073,1.222740344381139,-0.21249473717300363,9.527999769528483
18.012063509039912,1.2532080637681653,-0.22422010935807846,9.566786513389957
18.02673218212154,1.3349966119457526,-0.2262508859677948,9.54839909265366
18.031651373280013,1.1866826224069824,-0.21099340531393276,9.520280814622456
18.04638753216265,0.8535626965285588,-0.23247126910423352,9.53929922150869
18.051239103993172,0.6638644954672867,-0.20608517617563388,9.559963320110523
18.065956216943192,0.6901743025017499,-0.21825727600375358,9.569946066033003
18.070847488460718,0.6949060490166231,-0.21247076067265866,9.537534832801272
18.085597136129014,0.6551888125458466,-0.19540136244586478,9.53886667343005
18.09047576399256,0.5511445210735327,-0.21269608903547876,9.56642455006142
18.105237924737903,0.42386460757375477,-0.1989747810728442,9.550289259401218
18.110079157884336,0.31324649582163017,-0.2068445427489841,9.538505287000541
18.124796687052527,0.20801121904105466,-0.19581182785609086,9.55575329217658
18.129710908656044,0.07549244764006843,-0.19403426097430562,9.537585226051087
18.145339597524544,-0.03365110441993174,-0.19380155385148162,9.560831557956575
18.150312254851045,-0.1548357906641847,-0.17726660241391393,9.528822454774462
18.165039769292253,-0.3452062398621939,-0.2026903635594532,9.570948627921782
18.169930267426892,-0.46032494766107684,-0.18619914065668022,9.548808393332502
18.184680199617837,-0.5204420070311866,-0.18740219466636807,9.52589843746168
18.189560426498456,-0.5998781997264651,-0.16567716107668953,9.526556282340916
18.204306039818988,-0.6618873572406994,-0.15374354679899782,9.54766347542411
18.209103498471006,-0.7767220668644984,-0.16433593389133871,9.552749780345218
18.224644674265768,-0.9346075437834069,-0.1602135366318448,9.531655097455493
18.22978094740881,-0.9507720700467618,-0.16757224861028536,9.54953970646129
18.244436286131897,-1.0643417046324941,-0.15203571304606878,9.554854184133395
18.24955315926101,-1.1819303133909669,-0.1505891211062463,9.579542860533977
18.265324138548188,-0.9467942471302198,-0.16915726463515837,9.562217767768699
18.27173167034034,-0.6268313119021248,-0.16034985911737756,9.56222636949416
18.286833332109467,-0.5220647506548223,-0.16022909717697667,9.510591803491199
18.291583668511723,-0.5698377699580847,-0.16920394560757446,9.560097681885493
18.30639863068443,-0.6357799685897845,-0.1864651199736081,9.539182858617977
18.31115145944403,-0.6243556780171816,-0.18900747861243933,9.55396814508437
18.32601912875261,-0.6040864592101928,-0.17660417932843603,9.53129420844577
18.330773850227825,-0.523276583531294,-0.17033402864912606,9.550029173923985
18.345680845158345,-0.3523041580153947,-0.21219285629463036,9.55980494882523
18.350333143461746,-0.23683820467046743,-0.19281689855193337,9.540481228635977
18.365836840887468,-0.13844699222606477,-0.187396130194443,9.536337344712672
18.372086910996106,0.004747198081187887,-0.20169071601551372,9.564515344477641
18.386808185312024,0.15811392701900587,-0.2125845745445893,9.522530015003193
18.391674254540288,0.2171919726640261,-0.18137755436900438,9.560342200890878
18.40647286780603,0.3271474092072559,-0.21448621722894737,9.548127743176995
18.412120459551318,0.48520476387874034,-0.20880951250416702,9.550599982784178
18.427967096969503,0.6423862188150927,-0.21698039158544208,9.531722406937874
18.43285508137674,0.7976956488626716,-0.2214062197671072,9.562428466036955
18.44802921283501,0.9084116477137929,-0.23059021484930228,9.55015422753433
18.453599434970915,0.9208353321840742,-0.2348643306045598,9.545005121601564
18.469035646584313,0.9897133147047384,-0.2559397478903329,9.548601335144236
18.47422014745282,1.07711215453607,-0.2210286232676364,9.554928289179827
18.4888473474052,1.0941807366534746,-0.22792415552340983,9.545810826993801
18.49376046469037,1.180867863195397,-0.24627571226232364,9.545793804766323
18.5083715408531,1.209880739996328,-0.2299298747188039,9.526891881113643
18.513358239109543,1.244398040559892,-0.223303227636337,9.54762548510014
18.528087772836116,1.3327397519587911,-0.24309498060595475,9.54106786598032
18.5329599695846,1.1918146313420268,-0.23678692720381855,9.528395294147716
18.54787655356196,0.8601825454796261,-0.2100380828079744,9.560527369925124
18.55365937618152,0.6749017570418384,-0.22272856343274802,9.543053222031565
18.56828346217562,0.6383105560264898,-0.21023264808043438,9.555632139060835
18.573273796990524,0.5970890102466683,-0.22318424591951758,9.543129179172718
18.58790538651627,0.6511946409240638,-0.2190846838421837,9.531166609232772
18.59275045083476,0.5409214100611669,-0.1850615271937184,9.550973818147169
18.60751169347911,0.36354629191149107,-0.20605582691817817,9.539755781734764
18.61247591251907,0.2846423378753269,-0.22173459022488845,9.557566260518536
18.627090362130627,0.21839283649685992,-0.18485002748779392,9.564079163126129
18.632537818549853,0.06467035047213021,-0.19801028065598877,9.522355928649445
18.647875745089813,-0.04132531813370028,-0.1734626414154272,9.573393130184353
18.65259719923474,-0.22711826559958337,-0.17974811242794114,9.548824448221946
18.66749859611075,-0.3611723666456171,-0.2147762863924285,9.54138506944841
18.672194112317992,-0.42835877256518895,-0.19279139677538454,9.547613918777254
18.687467835914816,-0.5270257990655444,-0.17979740032155092,9.542856199748671
18.69299898500915,-0.6541342216480673,-0.18591514333777617,9.561416827766351
18.707626288534893,-0.7403571753636917,-0.1729849484468705,9.542815920826845
18.712509278577368,-0.8375808724606775,-0.1485273860504235,9.547549721232272
18.72718548527117,-0.9615121641345715,-0.16145378111023487,9.549738437704205
18.732170346545807,-0.9522321061607433,-0.18129154521644908,9.534858722205358
18.74679711213824,-1.0619883772459358,-0.15708729765892318,9.531771301918956
18.752017760772492,-1.1439879793816452,-0.1625529522007259,9.569452436446559
18.76755887120761,-0.8312615771543905,-0.16809440221544467,9.578502914155317
18.772319274877283,-0.6054027502558349,-0.1756650250376315,9.547679785339234
18.787148201010833,-0.5553250709387854,-0.1697925344432855,9.496668927095989
18.79197564267139,-0.5903248859654967,-0.17217191499764065,9.541491239275095
18.806646500070347,-0.5949494369177213,-0.18786890933617556,9.576951807574767
18.81152709654403,-0.5796016685675199,-0.17549977183063983,9.541480507584126
18.826358709025115,-0.6640852335306218,-0.16998641930104247,9.522947791507049
18.8311691997353,-0.502633724699916,-0.1884049129482696,9.581058095894639
18.8459896136821,-0.3645447937607993,-0.19992712861433284,9.5516805839363
18.850803803530372,-0.21867432369344447,-0.18889415321309602,9.563333902919847
18.86559868940574,-0.11439448816941446,-0.17782021769673376,9.533280775156792
18.87031128286974,-0.008971899513384202,-0.21227938951840328,9.561410649580667
18.88518502624975,0.1301059760962686,-0.20767000164561109,9.540986615252825
18.89001039949504,0.20281502106282667,-0.19739820031601027,9.563820540134651
18.904831435512914,0.3256314240800726,-0.21944305581806628,9.553613488660206
18.909637652581004,0.428311304975835,-0.20345160501821338,9.547135907810388
18.924469240546788,0.5680722229713905,-0.21170651555954734,9.515890724721006
18.929111873841524,0.7328419068737055,-0.20890504687528488,9.549263389309552
18.944372998989977,0.8901199676320233,-0.22435418621216255,9.543109929582691
18.950323807752728,0.9129759011258972,-0.221114086342053,9.546446969562501
18.965738771918666,0.9826805856934833,-0.23858659642120855,9.552048539347926
18.970442490945075,1.0188863289704935,-0.22033110724329952,9.541800313023975
18.985192613948268,1.0737884307659147,-0.21625846239516044,9.54627145014578
18.9899658217682,1.1497134181863635,-0.22681699041416947,9.531491478830246
19.004698973295337,1.2121442446293342,-0.2176525485181358,9.545941126856407
19.00966347016953,1.2310639464471402,-0.2008751902716682,9.550522023432793
19.024510855442493,1.309601192208292,-0.2415082068919546,9.547955653528334
19.029498186561934,1.2440725171474538,-0.24041824299828177,9.525634331355613
19.04538552461129,0.9288442823553428,-0.2297392381999703,9.53144356230716
19.051098069456707,0.6581350218223376,-0.23878243549563366,9.532958254252266
19.066799455422974,0.6588466888728186,-0.2203028655698938,9.559285553223521
19.07146524591326,0.6545805113676372,-0.20757094815679095,9.532758651575381
19.08641606541491,0.6467513956218169,-0.18965558801301435,9.539637147974005
19.09110139100171,0.5320759713180366,-0.21577744797141168,9.558305747364374
19.106059894881454,0.40758004100191164,-0.191756109134727,9.55644946884285
19.110619548858743,0.28095047273518514,-0.20957539562931501,9.555202417371833
19.125590874274152,0.23884287388605502,-0.19989329747091117,9.538365333422893
19.13032565173069,0.10610547081771948,-0.2051911358924749,9.526777062770737
19.145245158164432,-0.00656282644117885,-0.20307553994795308,9.553530984993499
19.149947522516737,-0.12574575712531263,-0.13557099133541609,9.537258056935885
19.16488805937671,-0.35165868284439633,-0.19470907692362469,9.552760252648449
19.169571130648677,-0.4483258655020214,-0.2128939237539734,9.549668756839715
19.18447445360033,-0.5100681651439012,-0.1580719729776361,9.562267954389961
19.189145588181333,-0.6050601614740623,-0.1620672230955931,9.551844219293464
19.205009341743303,-0.6690431203103802,-0.1474898209834423,9.564788182373093
19.209763258614384,-0.7732186474572706,-0.18016711422505208,9.549880302963427
19.224720885545384,-0.8868447798291912,-0.154876420928394,9.531898690200324
19.22935816936675,-0.9510740589954519,-0.15793266500302658,9.543428281846268
19.244399456540208,-1.0233698117949377,-0.1766970471183985,9.505504633629593
19.248905999354427,-1.137989116243025,-0.15912034599471514,9.551703110204182
19.265024747700362,-0.9771844344050651,-0.1845227591011501,9.544820991598861
19.27074693935547,-0.6780565427494292,-0.1677534713141347,9.555801013105494
19.285488048500582,-0.5290424311564329,-0.1657403291767674,9.532866864109407
19.29028961466829,-0.5622797411110694,-0.1401406903764079,9.52584302274559
19.30516398359844,-0.6363708573453277,-0.16975620310300532,9.538178035697438
19.309889731875433,-0.618734707703893,-0.18789217759746968,9.54194032304239
19.324718576028772,-0.5674012201695849,-0.17676847825367092,9.561501066543595
19.32945601237467,-0.48998170969665167,-0.17353984556742602,9.540387443316005
19.344398926317425,-0.3977915653773097,-0.2148339252703555,9.548953110594645
19.34907901968542,-0.275322524236617,-0.1814754212232382,9.555684683238542
19.364044436276473,-0.1813285526105404,-0.16643565429689,9.553105660844244
19.368695500596758,-0.05466421435430279,-0.1895695926148864,9.554379547195316
19.38362758201344,0.10318415315629134,-0.20703988570895043,9.5338318181362
19.388261866548692,0.20764473722445903,-0.198872897629321,9.550332637541795
19.40327750242885,0.26113182914165345,-0.21567281701361046,9.565384022240506
19.407877423297954,0.4021885046785369,-0.2158031492994278,9.55263940359787
19.42294482104514,0.5846308521169613,-0.21302545350065902,9.53725818138208
19.427439037984776,0.7121365994088267,-0.22730579937209405,9.538615467196124
19.442932012993758,0.8601239740868795,-0.21432187518073842,9.551218068592199
19.44825076598334,0.868104885619202,-0.21788487229285333,9.53548917584146
19.46307070942396,0.9519252330437408,-0.2232927382737059,9.54667798234968
19.467739514829123,1.0155824757632788,-0.23212564134613786,9.544171715118221
19.483567640670113,1.0607749095280814,-0.24589644416573408,9.542550011960715
19.488429804411908,1.1276416017845845,-0.2170614067721377,9.539554112922877
19.503212839704986,1.2171970130799172,-0.22403483725200457,9.556310279332042
19.509049475044993,1.199927638554,-0.19811988891740556,9.531915490462683
19.525896432672983,1.287421736169368,-0.2355651359182213,9.56017867645518
19.530545075686025,1.2461287593941872,-0.22673552211139736,9.546116418371897
19.545641468209226,0.9397661682150374,-0.20490305422684643,9.525970553630364
19.55010211018464,0.735165096165674,-0.21548971437284262,9.532885348251787
19.565423822035164,0.6900520991929511,-0.21818076371904246,9.560436947934175
19.570850285439136,0.6662408442810427,-0.22894060060177013,9.528448607816383
19.58582425947404,0.6205422030266996,-0.18450372684342678,9.529132904679335
19.5903782645934,0.5233340388692558,-0.22503082552851064,9.531126271312802
19.605430403560874,0.4088623842914701,-0.21660351968687802,9.551797307256411
19.609997155360794,0.3163675685928096,-0.20694449760308176,9.550408412883286
19.625078043691982,0.22775078841730934,-0.20299113946683667,9.557625904490546
19.62961695981167,0.0985013107951025,-0.1981281597413932,9.521652348552136
19.644727070552175,0.004939490160254353,-0.20243221399890737,9.569713757903545
19.64920751397137,-0.07667687838532719,-0.16724273343292123,9.554646811653841
19.664303247253276,-0.3097703948481166,-0.1961697470679084,9.544635755114133
19.66879673591983,-0.45397410029492197,-0.20684230322343514,9.552000751625373
19.683966605575257,-0.48821709956673415,-0.17562206085299306,9.566975552514915
19.688329835966154,-0.5894108547162765,-0.15774665042263136,9.5537482483996
19.70400093380968,-0.63646466233679,-0.20011700772210222,9.523236176987904
19.709151600779954,-0.7450909270509123,-0.1729906678749764,9.548136674774137
19.724131140223587,-0.8806010590056802,-0.18698514790141146,9.535787341035546
19.72871693750714,-0.9165966924821314,-0.14882027195119468,9.567316980638505
19.74374516317437,-1.012544755059153,-0.16360922178228574,9.51708946013823
19.74826491109494,-1.1386445978950164,-0.16341289894462388,9.547197970900445
19.763388328842737,-1.0038952873041316,-0.14982739746111404,9.5800031910328
19.767885876946725,-0.741699077376574,-0.1666050619412573,9.551646583665612
19.7830329134588,-0.565074894986004,-0.1751039620502896,9.516041906141515
19.787509428524103,-0.5586558594923008,-0.16644752294542395,9.521936927611407
19.802667837101403,-0.630682995447269,-0.16199468216083004,9.57445380554686
19.807056869836398,-0.6446381694089715,-0.1786738767802832,9.555456236080609
19.822279302959984,-0.4914407853577113,-0.17984424916770397,9.548362701134522
19.82665433583338,-0.4677645671829708,-0.15209588807513955,9.534280602512085
19.84206612802103,-0.46328795941771195,-0.18143155361158717,9.54656928858483
19.84734504982652,-0.35548948770277305,-0.17708875252790365,9.549948963873435
19.862487198349445,-0.22274536904902348,-0.17425590535424423,9.533157582918777
19.866946851375957,-0.08962715332513567,-0.1799229861599324,9.540396828824674
19.88214318251575,0.062380577337660996,-0.20762485397027575,9.574390893872135
19.88653425435638,0.1739235208063447,-0.18469706222265594,9.518816457028702
19.90171643358836,0.2514166883227607,-0.20631179400936633,9.549243087271298
19.906133925551003,0.3908808766139349,-0.2233137610496545,9.551584202292553
19.921363876725348,0.49797495142557374,-0.21202125658830573,9.553683260092702
19.925755527628873,0.6215017448448473,-0.22195672477727094,9.544983673912808
19.941011138441826,0.8329931960873652,-0.20216978865297186,9.565395769223818
19.9453544677372,0.9265518152170052,-0.2042339937403867,9.540888269922812
19.96057816662736,0.9539907575540029,-0.2288113181223364,9.554754811461876
19.964913619047607,1.0064425777037838,-0.22106304463218554,9.544746684624275
19.98024489502042,1.0300748713482588,-0.2309819002341025,9.556758154538372
19.984532994821098,1.0682248126652192,-0.23304840033655633,9.531378323460295
20.00013381824246,1.1490333460132884,-0.22380764536746248,9.542800624413596
20.005606442836594,1.1905453892295674,-0.23913198011769762,9.514418368777653
20.021465064521397,1.264293595257239,-0.24386294961976276,9.56717857582092
20.02572004378378,1.3060779370874824,-0.2384857827996564,9.562977017919442
20.0411365344022,1.1285099360466033,-0.21811329743603378,9.530632617260686
20.045364268430415,0.7953732037044134,-0.2271388814955835,9.539733428914497
20.06074494042673,0.6590589895548185,-0.23370664169528352,9.569860350752599
20.06497757057546,0.6420984836453775,-0.21216887885782035,9.553747237267858
20.080330437366737,0.6748725057489866,-0.22064517316482035,9.529341341936442
20.084585960612646,0.6353134522258701,-0.19682903962747755,9.525963765199302
20.099978478285156,0.5453564572744272,-0.2176176379436208,9.53522093360062
20.10420371556519,0.3967262331766233,-0.19481508141307813,9.5462831221212
20.119632683220143,0.2523753488278634,-0.21544605599753072,9.554349877618508
20.123774767341676,0.18497923647358408,-0.19028556562515464,9.541783936709274
20.13929939861132,0.053551786480074116,-0.20311029818060447,9.529208158795587
20.144453275398643,-0.03409024085022582,-0.19107819372695606,9.561092397228702
20.159779684040195,-0.17446867196128132,-0.17609474420989887,9.547564535489316
20.1640952119765,-0.3656275161293701,-0.19007284248711906,9.554855351454258
20.180414584356264,-0.465777406448504,-0.1678477264678615,9.559123485494057
20.18457994671618,-0.5384943451846271,-0.1699653065392254,9.54543783255212
20.20008073659903,-0.6498374390106543,-0.19127911718357074,9.531603510022943
20.204226928002672,-0.6971219983446958,-0.1944175608297129,9.566971754625438
20.21972100353357,-0.8032604315140515,-0.15248567802931348,9.564674372252032
20.22385296744661,-0.9064542170228188,-0.18586486102774905,9.535769141024694
20.239345184803987,-0.9072303368010848,-0.15815737378992098,9.547320559322213
20.243399863736748,-1.051301783742079,-0.1403689407141367,9.542238497941545
20.258925212739516,-1.1514401637791203,-0.1467275346636689,9.58506759593517
20.263030096420604,-0.9210355822223978,-0.17392510859241553,9.543323275290318
20.278601641536078,-0.6504313148730014,-0.1539174676731031,9.561106994825483
20.282645150465715,-0.5348698058899242,-0.17400778371411632,9.514187120418814
20.29825748263894,-0.5777506371526514,-0.1712060473678407,9.533286962345262
20.302207421300935,-0.6262491275410454,-0.18427457870754876,9.55185905283872
20.317859783641087,-0.5907417141033972,-0.15661935529622859,9.564280712184287
20.32176010986005,-0.5336345613580556,-0.20145219135408637,9.526833677919548
20.33818657323107,-0.47397431391568157,-0.18921428843094804,9.541501328015013
20.342455777059513,-0.34011414320066236,-0.2075552270129943,9.538616296864037
20.358683793656688,-0.1991267221070565,-0.18497477606947466,9.536033823175284
20.363170110679807,-0.1608193976965869,-0.1808927868415148,9.553042970517645
20.37849910613711,-0.03208852743447731,-0.18116210534014798,9.565058628259598
20.38273358967848,0.13675176683178197,-0.20479709838748308,9.540445822007847
20.398280825788653,0.23869879485404594,-0.19732314905810575,9.550248871618955
20.402309586575043,0.32016292355010895,-0.19088559368684682,9.572351271579967
20.417897715845744,0.43972566642702776,-0.1955511830619256,9.552928428875655
20.421883390167196,0.5765640244937817,-0.22800784240822014,9.540043674117756
20.437592682782658,0.7474154315331871,-0.21686831492194775,9.552040530174596
20.44244712230012,0.8791058127633372,-0.21570480974332135,9.565788252887884
20.458172167850027,0.894203276964955,-0.2330955181965371,9.539821564321661
20.46212112826899,0.9476669259252535,-0.22345055963834518,9.529830216147891
20.478718780432477,1.0093127184755786,-0.2317903168545277,9.559140247647989
20.482643433076717,1.0661086273856317,-0.23510771468792738,9.556698791563878
20.498772761660337,1.1406928126388327,-0.23423928353147383,9.539139340097982
20.50343043307314,1.201969051027943,-0.2287324272805256,9.553201172292455
20.51885031545011,1.1978285100930834,-0.24232051735547977,9.53838150130268
20.52332053253223,1.2644712054047125,-0.2379672085179674,9.550017839104784
20.539661189929266,1.178211637278879,-0.2271883916021659,9.558752154443466
20.54432720035534,0.8702191395468568,-0.2135450106623005,9.515682802294545
20.560296568292646,0.6833602473153398,-0.2157601187653359,9.537243221678095
20.564338604993633,0.6840931180241036,-0.21088443615570174,9.56016620003405
20.581021094847998,0.6719582754607399,-0.22001614857257712,9.52583929445608
20.58465687974691,0.6562752415158328,-0.2043823551938791,9.51887701590488
20.60061740626575,0.5615210051474446,-0.20442209720402482,9.571813211562517
20.604296921718287,0.4001376770677661,-0.18624931557437863,9.548608137230946
20.620259304713915,0.2820579134771226,-0.22135852857030058,9.55373486313451
20.6238775084829,0.174067151313396,-0.18668436151421505,9.53932213011382
20.63985109593879,0.031026909825325924,-0.19655903955985818,9.538762600042682
20.64342616240878,-0.009728397322931114,-0.21209016562576524,9.566834759481413
20.66002820652976,-0.14048886894313684,-0.15954403645244847,9.547974045239872
20.664215253510367,-0.30814787401415517,-0.22879778974707166,9.544635392714836
20.680009500902518,-0.427549704679245,-0.1872297777090056,9.553493187977598
20.683789567961703,-0.49905833292755775,-0.16628829822418442,9.564493229086368
20.6996055733577,-0.618775297439903,-0.17280302410836554,9.547388113369244
20.703346946455543,-0.6966909755395202,-0.17420949840247946,9.555212233243449
20.719333622922893,-0.7767926406924198,-0.157952409284286,9.54416137699809
20.723846820014327,-0.8919589770435348,-0.1641257108467627,9.54893635398488
20.739941521082162,-0.9819615552425266,-0.16895592027886627,9.530785229312373
20.74352230920441,-1.084830936687803,-0.170371415013506,9.53597967290285
20.759561928394326,-1.1418438748997184,-0.14507459331087136,9.57656462321638
20.76309402278915,-0.9481447089680655,-0.17254865282135137,9.57021716167606
20.779192085595362,-0.6476440695146073,-0.18547883623351913,9.534586529959505
20.782739513586254,-0.5011651294288594,-0.18649789530759706,9.51895154916427
20.798857018080554,-0.5906007172473138,-0.16152615604935391,9.556565322595185
20.80233644955368,-0.6439490785309006,-0.18758047720052418,9.548937711876462
20.818442088004172,-0.6101844435289828,-0.1748968125649968,9.550794629303118
20.821915468333042,-0.5348975474705575,-0.16689325189584514,9.559804262368237
20.838039020863235,-0.481501319191254,-0.17210463534581127,9.559225898095507
20.84158721837989,-0.3182915778637254,-0.21323050066961668,9.5527516764979
20.857720817894787,-0.09272489940976238,-0.18157010755125483,9.556463883293388
20.861151777956287,-0.20344989949462186,-0.16082659571983507,9.496308608566629
20.877394921979494,-0.24710670590930167,-0.18809971191485014,9.533472383535079
20.882477410715556,-0.011710895659807697,-0.2027967660610024,9.565648940436954
20.899026777061856,0.1972256301884189,-0.20079800204541698,9.521054275154283
20.902365839026395,0.3241692480163465,-0.22185255299287918,9.543838574592158
20.918600553598093,0.5432055681983785,-0.19908446758087753,9.524235757383169
20.92192996230448,0.6478405046407323,-0.20807496659031668,9.540410008741171
20.93821016894543,0.7320772314852747,-0.21592062381699853,9.553290300001041
20.941526658075244,0.8427896705204048,-0.20580938878999425,9.565037719747005
20.95786958684373,0.8785746346322771,-0.2187970916325345,9.561595796362226
20.96117677888443,0.9313806905258613,-0.23284691695251206,9.545820675214186
20.977482600334344,1.0173689080465942,-0.2241136306812227,9.525838500976308
20.98074802604848,1.1041474057961465,-0.21457725816743983,9.563736852922817
20.998057748806293,1.1147358066803452,-0.23430099116205802,9.534458616284391
21.002290169342313,1.1615036262970273,-0.22238267087581043,9.56134825186049
21.01877988911837,1.1667726869828767,-0.22689241267114407,9.558653881681352
21.02280398311733,1.2905931060134437,-0.24235832508670818,9.551207448342991
21.03946253993167,1.2241875415434027,-0.22889967572376366,9.53454208297302
21.042485808853343,0.9385795388414178,-0.2262214923791698,9.541092283082984
21.05931462869142,0.7063684244166849,-0.22367734965377084,9.547177423535066
21.06326615119409,0.6519670787645223,-0.21907605657876517,9.572980175373363
21.079558559622573,0.6613042977769346,-0.21002405044821715,9.537605676884237
21.08277281003838,0.6702188440794157,-0.18718611196410084,9.535221272872475
21.09920632695693,0.6188599028146179,-0.2325849371268006,9.54536923367521
21.102395821353173,0.46779712050143685,-0.2138463463914114,9.537038581410016
21.118840987136142,0.3094545649346813,-0.20770330453934002,9.570274833230247
21.12204582518345,0.2160748858126119,-0.19666804932249193,9.568370978216933
21.138409165348097,0.09322926492544868,-0.1819024114911735,9.5276015580201
21.142251384327047,-0.0049622990647550155,-0.19448987112850039,9.559636273267058
21.15916980540934,-0.11071435695782528,-0.1701130537782074,9.565474280339755
21.162731667236887,-0.33166219933526675,-0.19463538140371892,9.536561177115074
21.179795384969573,-0.45569846365580785,-0.1970918849801801,9.551597715617378
21.182765436993083,-0.50504089047226,-0.17330829735930242,9.548615774134051
21.200487686187536,-0.5954879562446008,-0.1478369372996227,9.542692175316814
21.20329922832644,-0.6813984784679109,-0.1939032011761669,9.54711000063157
21.22007200684896,-0.741818122387481,-0.16316701114782348,9.535060894603314
21.22287360312107,-0.9307934990078558,-0.1482479042907211,9.550711807169002
21.239707214211226,-0.9318618936727924,-0.176894435350264,9.551810783513131
21.242504206740765,-1.0612722217682535,-0.18130294484555795,9.519898819969205
21.25931867816939,-1.1277240084961908,-0.14927937378766573,9.572474430528901
21.2620078643035,-0.9472386994145998,-0.16480862455845086,9.554051627967606
21.279019448962632,-0.6972306102902387,-0.1955059134592441,9.553832766689073
21.28158040451619,-0.5414003460833724,-0.18636315597736575,9.511333140173816
21.298441182877305,-0.6050438536632868,-0.15801567369776037,9.54244916829337
21.30129876354435,-0.6720918217426657,-0.16932790570599524,9.565097776946823
21.318229149792046,-0.6645709527744945,-0.1740493337176162,9.543582326216324
21.32092985383442,-0.5792126919039917,-0.17200380813784893,9.558009814446697
21.337815523480092,-0.4513500664214885,-0.18356670852559678,9.530986164430967
21.34030637084454,-0.3442512370323201,-0.2018248184789817,9.55883429013171
21.35750440952023,-0.22912888591676145,-0.20833190448180383,9.53932823210292
21.36007387548385,-0.1597708150769045,-0.16164271152926038,9.535467114763383
21.37709921097562,-0.0673094710376487,-0.18842169133890752,9.540430547625332
21.37961980565709,0.13209117662569916,-0.20506976866480517,9.572777757532682
21.396789533829946,0.1524271374858632,-0.18772726489460187,9.56612444555382
21.399353425192864,0.2604947154768603,-0.20252255670189073,9.546333624997764
21.417508508085156,0.4353578832596046,-0.1991124568131198,9.558921373905676
21.419759324279184,0.5628001109063558,-0.21243456608487735,9.532328784726312
21.437077319276934,0.7084918271424154,-0.22244135162271,9.552104566061306
21.439358517463177,0.8423381317723905,-0.20079682307212188,9.553883806598062
21.45663724159392,0.8797729564741087,-0.22625355630372032,9.555913764155074
21.45895318739006,0.956356793264502,-0.24005828476985375,9.551170631288898
21.476839609088017,1.0155971544842266,-0.2162570936121674,9.51171715710704
21.479733590801033,1.086002538499426,-0.2118859020369987,9.544893275882782
21.49691974695726,1.0702767638203308,-0.21877468934472644,9.558548156276734
21.49926311112757,1.1479538562593916,-0.23240393758386893,9.558708121405889
21.516560565998738,1.168575686794889,-0.2400558257072366,9.528309758347703
21.518819292044324,1.2769053338248826,-0.23741978012594014,9.555557139984105
21.536201183510297,1.2957600875012478,-0.2343325920132598,9.537124162657301
21.538426390561806,1.0466109036529194,-0.21675241428536465,9.534930834668652
21.555860585196022,0.7712156060428926,-0.2249466776693151,9.536681749633386
21.55803734952051,0.6551150005699415,-0.22984795636403685,9.557521819765368
21.575502380572384,0.691539819844739,-0.20922881427524925,9.55105213949134
21.57757463742188,0.6928632142457581,-0.22108773243909086,9.542516965530812
21.595122116039622,0.6581857955409836,-0.20836674590661122,9.526794176713171
21.597186709103354,0.502297512922364,-0.2278551831861919,9.544003154280608
21.614778133364744,0.38736890893875636,-0.20664172616035217,9.56299288252634
21.61679657480642,0.23832096234009706,-0.2136002832185376,9.585859225364194
21.63443790607122,0.1449972616101895,-0.19410862394115713,9.546434650022624
21.636368612732927,0.05205039233159027,-0.19108729054459708,9.531060766537756
21.654020710033937,-0.005607808004450365,-0.1896370132129249,9.551287895729761
21.655966872090563,-0.20875729269551013,-0.1765943110927748,9.533567259458167
21.67367461195861,-0.3881610669318824,-0.18330057617688097,9.56661225625085
21.6755876177913,-0.46809921869051707,-0.19499973810189344,9.546695854811942
21.693306489730492,-0.5352150507986387,-0.15581862340565766,9.535689525536917
21.695271595253512,-0.6109098989946146,-0.18041689049400514,9.5727845574067
21.71387937479449,-0.6815942000580745,-0.15865020137107907,9.533451163055345
21.716268873475858,-0.8059231520129674,-0.14742331401247113,9.538749463132989
21.734662967853726,-0.9142908152656215,-0.15349485441046692,9.583822207871334
21.736188335215417,-0.9676138708503553,-0.15531442755084615,9.548210313684773
21.7543024854412,-1.1572898227542119,-0.14307670933075645,9.524625405540075
21.75583088786486,-1.1083144862007763,-0.14647231777254124,9.587425841631449
21.773927022311955,-0.8198888986172186,-0.16179526208738568,9.563074732065472
21.775450004177657,-0.6053377313847653,-0.1846573265199034,9.52813499863083
21.793578157926397,-0.5258897074712123,-0.14635091032314101,9.50863914993927
21.795067886819787,-0.6169311200214772,-0.16993535693574865,9.523224722755396
21.81320895571946,-0.6587110318224535,-0.18909314975527156,9.556462344589685
21.815424770539305,-0.6397011340954297,-0.1910699639735962,9.553270951518927
21.834725462440165,-0.5454258568861043,-0.188776159226005,9.56084021142442
21.836252727401604,-0.42306804149961785,-0.2007431955994565,9.549651626500482
21.854496780498614,-0.2508830328790377,-0.21062985834082176,9.54756086134678
21.855846358609035,-0.15328980679417994,-0.1600893442575283,9.533602644367852
21.8740418085697,-0.10102161410601117,-0.18108950541273475,9.518995099470825
21.875571615410458,-0.02907730383701298,-0.2001534814336353,9.573812947814076
21.894858044844977,0.11923008038814777,-0.21271377844668535,9.54617054547177
21.895893105089932,0.2283004208230198,-0.18939966031879218,9.562401793231823
21.91446694623352,0.3743445577380917,-0.2009850365013398,9.555574778655911
21.91552017435249,0.5586075959180338,-0.21851692655987803,9.556189094302555
21.93409556624019,0.687719757918686,-0.2118499811341531,9.536821254630233
21.93560151094398,0.7685466688434285,-0.21526704409997227,9.575968952464146
21.95546986215302,0.8468009584556708,-0.22300383400932905,9.568650987003382
21.95663729855499,0.8949107451891254,-0.21772124348064595,9.550722740719111
21.975911838532014,1.0249293619921214,-0.22519417801450464,9.557990299403292
21.977370497831394,1.056801415376744,-0.23622306808002783,9.565433472192858
21.99594079303701,1.1047506007476857,-0.2307445782284471,9.523783120767686
21.99690569108289,1.13637881695298,-0.2144800414582075,9.549852444840974
22.015616533984108,1.1617360428681263,-0.2149801900730842,9.556157205567791
22.01740008519061,1.218514459627896,-0.23220936922125454,9.568739423095668
22.036297824823215,1.302455072214256,-0.23991097430688307,9.535875952240437
22.03695977918365,1.05827213099844,-0.22270635856112986,9.530414295223705
22.055990698145344,0.7983538595737285,-0.21876925646648981,9.545891700314227
22.05658878461842,0.6634520683572259,-0.1967062071655312,9.57462235612767
22.075599937539593,0.6729870543747882,-0.19003962004665562,9.547429130175725
22.076220716432072,0.6966588770668897,-0.21477586439932717,9.544697588638266
22.095195647642402,0.6575798977658149,-0.20877670317688304,9.54828836984679
22.09605215044346,0.5009567254680095,-0.22248136143517946,9.540879958093017
22.11598859465795,0.3473986042672264,-0.20762829709382627,9.558479562484093
22.116512486957152,0.2655486529977796,-0.21465660597740274,9.554695780693175
22.136737135459065,0.16095216708663002,-0.19318744243727498,9.534814057523326
22.13677363921475,0.061413886318476794,-0.21024577531700156,9.547539938079861
22.156488517148322,-0.023528052831889554,-0.19676646200581557,9.557026628395088
22.15742711919047,-0.22535186577461805,-0.15954872040118462,9.532315561341475
22.176853447651492,-0.38825192993715774,-0.1924050073965748,9.558569505904536
22.177156528687046,-0.5027067747101002,-0.1736479906369708,9.554048082402858
22.197631260606087,-0.5866679887407171,-0.16015401458305079,9.556530491638231
22.197594080373005,-0.6806314066900105,-0.20257373223694414,9.53163630700051
22.21725968270998,-0.6951470873455465,-0.16786105408228943,9.52752230344789
22.21709584353029,-0.819563146690947,-0.14265219002159227,9.55893156049182
22.23689691728462,-0.9309090567493667,-0.16286252271064627,9.545644705276272
22.23672643875954,-1.0035047715411285,-0.18041433774267215,9.535518038083563
22.256569703291877,-1.1333001507426415,-0.16383588094623497,9.560854174317821
22.256352370427056,-1.0848323232495867,-0.14444926926281285,9.581049750684695
22.277166750849943,-0.8057817495640061,-0.14994874300540662,9.56062772397919
22.27689788916614,-0.5601834545973701,-0.18673616202147922,9.529311517648512
22.29690920428911,-0.5103521002269215,-0.18675842661811548,9.52913865882441
22.297341363969984,-0.6152347395479306,-0.1729165361810863,9.55237977004295
22.3176021018562,-0.6626340996241977,-0.1539307715518586,9.572766006131124
22.317810582769596,-0.6174613272370828,-0.16086339875017322,9.577095604929214
22.339083727414952,-0.5126002976870377,-0.15508520127369874,9.531725882537984
22.338591275462548,-0.3476164602837313,-0.18317532254732943,9.548690236156876
22.35883621069645,-0.24465548051433592,-0.18695938867213566,9.538780201227915
22.358176292926338,-0.1466187786338389,-0.18266885396389815,9.537995115612755
22.37851112812743,-0.0842805445324244,-0.17730350282775045,9.543808785893027
22.378408866168037,0.03673755471429983,-0.19161872004773278,9.57416186101309
22.399988879664335,0.17533020829173698,-0.19150198472687122,9.564949108484967
22.399319473151763,0.26433946653242785,-0.20074925137937838,9.533592513275496
22.419793256627543,0.4278206597013618,-0.21157712921847538,9.563459620994925
22.419663246313366,0.621333569461349,-0.20003434962639222,9.553464719657793
22.441677229925673,0.7577824670389914,-0.22825737270966875,9.577642997391028
22.440238692521433,0.8459362590337531,-0.21734625997386586,9.558340496345172
22.4614445260633,0.9042535879432821,-0.22420104595721693,9.529516833459915
22.46082218733296,0.9930408983670223,-0.20644970905006332,9.545759400740002
22.481930797679166,1.03592316236603,-0.19982533183903825,9.54395540062018
22.480470380980375,1.0589495118882075,-0.23928570796256293,9.545965573024764
22.501614486550515,1.0789666115427499,-0.24072085940283297,9.545133875547966
22.499911807608843,1.1560174153866405,-0.21516937995295674,9.563933806948507
22.521294839853507,1.2009074384571807,-0.2357196957316227,9.550029954768016
22.519517046735483,1.2883947235549775,-0.252332155571762,9.548485633299991
22.541003626495566,1.2417555031711704,-0.22448865346502925,9.538946529893325
22.538864794853502,0.9085190231391803,-0.2132415951002475,9.553294497709253
22.561048405852965,0.6951346329947014,-0.23334685391288662,9.573360463555202
22.559775331286914,0.66301975885868,-0.21191325707713568,9.564834957444582
22.58127270299009,0.7048196192383394,-0.22675226955014005,9.547276578152722
22.579260629398675,0.6997434689528352,-0.20910575347056634,9.533518058725697
22.600924341409446,0.5947016980367348,-0.20706743557183696,9.544611530632862
22.598780584036405,0.43398835351028314,-0.19943592790589987,9.567435125973617
22.620631265151207,0.29897866623087804,-0.20962348335874018,9.537648155893828
22.61835375574013,0.19674667724232553,-0.20659257145274354,9.548183124760534
22.640299982510186,0.05537397564381463,-0.1872279361664341,9.551044123211522
22.6381191437984,-0.08832356621291794,-0.21253099895783523,9.538191761559561
22.661121754623895,-0.23313243882370713,-0.1612843549053164,9.518885428410535
22.658371053296726,-0.431185444093685,-0.18955589876186718,9.567001354856128
22.68072129152838,-0.5495640529150846,-0.20310519655377746,9.550715083304295
22.67786981247923,-0.6080192624874441,-0.17847073306884528,9.558713189815892
22.70044161383291,-0.64001877128354,-0.14999941542163236,9.54511811831242
22.69743173442891,-0.7204370195563422,-0.1856923394043908,9.528965178029441
22.720151592386383,-0.7756293422389423,-0.14467353334638258,9.550527361635549
22.716986952742886,-0.8402886428928976,-0.15650038550158044,9.557671575373035
22.73986195580824,-0.9032505206683141,-0.17468934841160155,9.545679631771307
22.736468824727027,-1.0892896417899491,-0.1751941540057502,9.528228041924026
22.759486192580184,-1.011646785694012,-0.16234737844668862,9.59415783649068
22.756084888379792,-0.7743040371539552,-0.18043448821498276,9.539122963502097
22.780184866708172,-0.49436237337609545,-0.17386070950015295,9.518663690241672
22.776547430041845,-0.3742021681328314,-0.1729271599775485,9.53647334309434
22.799945482254813,-0.39546430539157984,-0.16572351439177888,9.555993167134734
22.796042683496417,-0.4997284571233176,-0.16515149056017858,9.539194623171214
22.81969912487557,-0.49085510939083576,-0.19225541433100493,9.55547606447035
22.815572715743098,-0.35620520167404385,-0.1900604673644923,9.552936566420128
22.8393765367629,-0.2205673665741249,-0.19688206165994498,9.573330047898587
22.835021780268757,-0.1362017910659779,-0.18827049885652983,9.532383217935214
22.85940625833653,-0.04879637290968192,-0.18934657435592786,9.534732813614376
22.855700503144973,-0.014586842592554244,-0.1944200967180192,9.542139494874018
22.879738393963063,0.10762649575684163,-0.19685376120521203,9.566878053113351
22.875165655833985,0.20275422715483024,-0.1965056682575967,9.562232021377765
22.89951597815237,0.29595902293446286,-0.2117745164744935,9.524202082370957
22.894641174211966,0.40142296674223715,-0.2005652980041066,9.556887129231715
22.919456744390764,0.5329217985202089,-0.21321411088245126,9.57497893899344
22.915263920422646,0.659387516242634,-0.21119349820742295,9.546005636266218
22.939908852860267,0.6740186255019476,-0.2207165788728645,9.563981179763221
22.934678164743868,0.6552703321978488,-0.23881778329787212,9.528988092017512
22.95962484018462,0.71449119069926,-0.20931664697776206,9.547758021395309
22.954193218209884,0.7158470865692076,-0.21739190342173842,9.543202267939222
22.979354671899703,0.7706168943087675,-0.23240410868696218,9.541116608832015
22.9735839103689,0.8228811037577863,-0.20998214904627233,9.547110213207434
22.999161845099312,0.8415637854502904,-0.2095077961495983,9.540611855032378
22.993193082149933,0.8090245102126477,-0.20989305596698288,9.537754746954022
23.019938757615844,0.8135550556765023,-0.20418535359093376,9.559245068621305
23.014623710983557,0.8210619089747446,-0.23823428356645404,9.555559912022446
23.04063613212219,0.816180993605877,-0.21097899191526667,9.517555996725807
23.03415239462875,0.609632956112194,-0.20295916711980197,9.514956187820422
23.060374952633143,0.3856897234080482,-0.2119928703715753,9.55877482939726
23.053580714733275,0.2569425279198182,-0.2047260431031429,9.551678590613697
23.080109804048828,0.2705556023778798,-0.19580120117053113,9.554511540695108
23.073093847005442,0.30976743682853275,-0.20871351142444405,9.553556983811092
23.099837720340215,0.2735046160263126,-0.21170512906444897,9.548850676161047
23.09288295223445,0.14749040457251952,-0.1973875659984281,9.538737049807217
23.120784223384405,0.0561559239896463,-0.20593457198221624,9.559115992137329
23.112924270240825,-0.00790274715787416,-0.20552819533794348,9.554168268525085
23.140533589406495,-0.059734814744579146,-0.19700755048466012,9.54501113033143
23.132339196930506,-0.1031055699274628,-0.19136333315426354,9.533070124609072
23.16101669453035,-0.13434206856044167,-0.1739028916399573,9.564410521851277
23.152970376664683,-0.20743662054148615,-0.18795639690852023,9.547467231142061
23.180899471115776,-0.25479879006279194,-0.19195474270401694,9.55093583232682
23.17304738053185,-0.34234084689001093,-0.18260255232934575,9.536449632336039
23.20190476625746,-0.3784796652140597,-0.1893057570229335,9.547430261582274
23.192555877293,-0.3627319645495323,-0.20500274141355507,9.545868009096983
23.222244403399632,-0.38548871704101956,-0.16737773916934265,9.539617855705256
23.2131817715419,-0.5242152810455468,-0.1609679172827951,9.552573895206516
23.242338946371966,-0.4594508102324582,-0.1901116325730888,9.58094186480181
23.232720962836122,-0.23089892481513508,-0.1846736334455142,9.551127040026048
23.263196085074615,-0.1553484507008275,-0.18129703025124755,9.535264741988101
23.252961675922528,-0.1687472964063415,-0.16986896420327718,9.536160918342551
23.283067811587795,-0.1763080134155228,-0.17461010208093702,9.550738519256026
23.27240112513393,-0.1369245603666207,-0.19028790209671365,9.525272394568114
23.302922952932633,-0.03584097998033546,-0.19762643788575435,9.555160464361935
23.291776578683027,-0.03748947817567288,-0.18948291796086736,9.561286262262712
23.322704601233294,-0.029127032408149695,-0.19394617301909903,9.524816287557627
23.31211577682357,-0.020792604233266496,-0.18820351897363974,9.561235532162982
23.343571445437703,0.035028297033023216,-0.2097077061615241,9.550392110809488
23.33148983177783,0.11045701150996567,-0.198897725951653,9.554912277769676
23.364313209882656,0.17688959386522457,-0.21200550743551483,9.54322070960736
23.35190222307896,0.16481547075732353,-0.1939924108723982,9.563831172620638
23.384307110233998,0.1936397458300564,-0.213897006797385,9.539819955567811
23.371246766725385,0.25273652063519,-0.207311056449469,9.552340700370062
23.40422304342613,0.30090938781581356,-0.20799626353782227,9.555812371653044
23.39056500687293,0.3052202555181669,-0.20256094572589933,9.562505609707818
23.42411032059266,0.3146174458370572,-0.2140544844916876,9.5486456196295
23.409860875538083,0.3454909125822384,-0.19936272565136987,9.564977806642922
23.444039532524705,0.3335777667439441,-0.19653637544420788,9.547676256389325
23.42918086243433,0.3507817033044718,-0.1999834087453539,9.53446803018864
23.463995356621382,0.3652945043247724,-0.20667200586625156,9.52951100969568
23.44848400420991,0.41158718538908345,-0.2101873032718214,9.55284007401531
23.483963302748442,0.34296241036568514,-0.20705187625174798,9.535525280293632
23.46769862078008,0.3035521591080913,-0.20836800555961288,9.55260765889443
23.503910134430075,0.2800817442208266,-0.20621954230355355,9.565517163271888
23.48695819011223,0.2727283214530395,-0.21154739327622551,9.535857420091705
23.523933465164887,0.2475099373335925,-0.2112254853865087,9.528984192158786
23.50617553208991,0.2302880449260733,-0.2083481277685056,9.54813907877075
23.54400610074508,0.14525067264620237,-0.1921415214092554,9.564517977693862
23.526347520574898,0.08462563325936073,-0.1871820505550646,9.548789361735743
23.56499333602256,0.046539226653888544,-0.2189248143261831,9.545840379409087
23.545567740063248,0.011326768552228299,-0.18798351269090494,9.557385761711997
23.585015663002803,0.0025050321426774076,-0.20125015966401094,9.553047068671853
23.56471364697837,0.012440434362742498,-0.20891980279940162,9.553917776658391
23.60601247392862,-0.019944149179198914,-0.19523994598259412,9.55434992182817
23.58474232325054,-0.050297215640021396,-0.204151591483024,9.574768273589001
23.627129606887497,-0.055249647211161414,-0.18788674535287248,9.555379606575654
23.60516662404924,-0.025064192927223294,-0.1883576339374226,9.554233183634341
23.649727882899892,0.05637891857941734,-0.20179625201981863,9.538652431860474
23.626974893960053,0.13232340233084008,-0.20865043261519006,9.535927373418433
23.670851302191927,0.12290654114553211,-0.18141600958759105,9.542212663207577
23.647274828160107,0.08922843252493655,-0.19082786762888593,9.544730661653105
23.69371357874152,0.10771619813837624,-0.21422332025303048,9.55877820901641
23.667965772864687,0.13102995037617982,-0.1937543303000473,9.527925253920724
23.7142064409062,0.12020475644043764,-0.1838354398228314,9.557113968462382
23.68674087543179,0.10588688610495815,-0.19556918900933007,9.56564147643416
23.73473334984492,0.10057417815203563,-0.20209782381911784,9.534191811780387
23.70669202896518,0.07444348463753428,-0.20576617717224602,9.52745402876534
23.75592295327256,0.09314447656986179,-0.19514151697495208,9.568330783698459
23.72541619083477,0.08355328676590836,-0.20170701441246072,9.558655919078838
23.77643129458858,0.09119400182872307,-0.1986467141847681,9.546719793254274
23.744137170899847,0.10803956000804288,-0.21220208985566938,9.53291723139493
23.79705149009868,0.11340527594821621,-0.19611634546739629,9.559706748622832
23.76281025526782,0.07033156646560151,-0.20117471220193564,9.56265682329873
23.818748265338307,0.09168927143125309,-0.19033213285840464,9.560854603838168
23.78217135079209,0.10472948398163467,-0.2110168864965064,9.547291459338343
23.839538307434847,0.12390054475640665,-0.1933483586603434,9.556376392784205
23.800424396365717,0.1040281911408767,-0.20537520522452932,9.559033504471728
23.860774363377715,0.11094091323342317,-0.20370794838776612,9.553093461767748
23.819949154027608,0.0722017864181671,-0.19353205628077835,9.571864342804577
23.882404620406056,0.09533699610533243,-0.20573278201879122,9.538416102941515
23.83883297899878,0.09059371270068989,-0.20379668633421727,9.52657323409364
23.90470703530687,0.12707569833414312,-0.20869573916930464,9.542160412665739
23.85680623846683,0.09318825409950424,-0.20301183032929088,9.55118181012738
23.926186541830468,0.10596910126812835,-0.20824403789375504,9.540131018222832
23.87443521478682,0.10106504625995938,-0.20169385268885015,9.537249150278853
23.948171818287868,0.12040635771612677,-0.2103310197149766,9.557542785062603
23.892933714001558,0.09362806000652368,-0.2071814374695046,9.558072003119607
23.971050592291295,0.11481947635428169,-0.21515161331564683,9.541604096731463
23.91106702355728,0.1046205966248917,-0.1903467737256082,9.564824552170633
23.99406098938391,0.10304493700781754,-0.18519988483743782,9.561282704036289
23.927647207810246,0.10106913181658109,-0.192605164347189,9.540498262571097
24.017025505358404,0.09509585500007249,-0.2080004556947238,9.547190692368824
23.943656207555257,0.09618986248009388,-0.1853836524956317,9.562819899154318
24.040518384235554,0.08864831387827347,-0.21185397189777264,9.555415928683452
