Time (s),Acceleration x (m/s^2),Acceleration y (m/s^2),Acceleration z (m/s^2)
31.38740920063442,0.10353192986110553,-0.18299222849754324,9.569109107617015
31.35636557005309,0.10074211482136902,-0.20712898706684407,9.560952564313745
31.405022237076356,0.12177053189817963,-0.22109571642687031,9.563912053072798
31.37992062833718,0.09518521719769255,-0.21005934698303458,9.56051213055081
31.424541546178418,0.10657725110155776,-0.18789424779267314,9.55284553954475
31.402185035234172,0.12750100893173413,-0.21621220399878388,9.542775511889316
31.44489317266294,0.10646019167495216,-0.19842152120360818,9.55045225320354
31.424066604106688,0.13817965623787354,-0.20231450964058498,9.553546373202412
31.46373170622416,0.1508482503679327,-0.19717340770037084,9.549029744892723
31.446093739551223,0.46230513060229034,-0.186902952542321,9.580532501375625
31.482472324763012,0.731483239174783,-0.1890109440469261,9.544010004375645
31.466729542570317,0.7332952570303829,-0.2083220604694086,9.503053572749808
31.501085606557503,0.49131483393956105,-0.2044058540692621,9.55723768773405
31.48719368885538,0.12237691197788197,-0.19392617658538017,9.590435477613628
31.519821240058775,-0.2411300649151815,-0.17241731464057755,9.570246517559626
31.507625568192335,-0.6379579013576455,-0.17765689713161675,9.52495361098691
31.53868188907764,-0.8451848454546506,-0.16598166168436387,9.587524247690212
31.52796124471859,-0.8696444735704538,-0.17015439671541857,9.606049203871693
31.55896970852917,-0.7377927051730063,-0.1553289420860985,9.544459378631181
31.55034839598088,-0.5603610093302772,-0.18948710440786357,9.565258093496482
31.57845532889468,-0.4022133193899108,-0.20241080448337173,9.560141075323767
31.57049919343747,-0.3431567552973411,-0.18091235462492936,9.547701597016387
31.598404603243775,-0.2817631320393551,-0.19066749481983924,9.547523564051886
31.591639009667684,0.005215222178195843,-0.18401850562834027,9.596351384461066
31.61762682194171,0.3566515213776411,-0.20922867143705234,9.545762799804722
31.61166073370042,0.782792741860936,-0.21367611858183774,9.533182773587958
31.63699840785764,1.1990013242621378,-0.23356384340945724,9.551389540135393
31.63291278916866,1.4370267693681673,-0.22980349313737095,9.54936243354532
31.65678945970747,1.633397089714709,-0.24216538570301013,9.549808225528452
31.652833278535137,1.8348317714226188,-0.25236279444191057,9.57465372618786
31.675988575500174,1.8907789075347687,-0.26328958861683577,9.580036619484117
31.67347402103965,1.5912114341155266,-0.2105711751144192,9.503564427378171
31.697013244039084,1.1239273886302914,-0.23879068783568802,9.543580450230904
31.695494067493406,0.6297406088624533,-0.1915566830574384,9.608372072778378
31.717645885371006,0.23711603548169366,-0.1871184467265848,9.53699955044239
31.71562326241959,-0.0032945247803963735,-0.19934387569033288,9.568217273691065
31.737385756171047,-0.3608963307184556,-0.14748617351668306,9.542947573288
31.73730319498096,-1.0847074996275976,-0.1754016168597719,9.536360748061606
31.75817109087212,-1.687612260885284,-0.16382686927667325,9.56571418500547
31.757513839925668,-2.280229186985357,-0.11628795629624626,9.567315709140315
31.777379853055972,-2.908260106166808,-0.12272907879518222,9.568990885650699
31.777837085782856,-2.458112007115688,-0.10317980305007073,9.644930685397464
31.797950567956068,-1.8964218639059423,-0.12276814411559339,9.571168599591577
31.798087543114168,-1.5987981477538526,-0.14866834654720953,9.490201238587927
31.81719717995613,-1.2673080094418427,-0.14125587103282758,9.529986224101233
31.817971612873677,-0.9351273514339149,-0.1529418125085619,9.611877900414424
31.83656858425488,-0.44211102384866635,-0.19344895168534398,9.569828606531138
31.837824869575254,0.035099724467387024,-0.181500077426427,9.527006013169087
31.85596549453829,0.6154728109159657,-0.20505538773375445,9.546903376965815
31.857643249161264,1.452305023236203,-0.25286773957068154,9.567945291616969
31.875300382188534,2.323210040469229,-0.23644943494615936,9.572647633285083
31.877431624293205,3.100873347953521,-0.2585022595307146,9.54991720846473
31.894724250736967,3.5716586713518224,-0.2993760084486351,9.5426668770378
31.897244143194477,3.6228212706128966,-0.3112219530311439,9.533983865655658
31.91414647853014,3.353850107262988,-0.2677796871604113,9.555769265521432
31.916972865258625,2.880187667672072,-0.2795974114809376,9.490221062729551
31.933434976315862,2.4430368692487976,-0.2568726213373237,9.529189044481598
31.93697764085491,1.6313894185240496,-0.2483194778480547,9.573026184109048
31.95418355618085,0.7207601906931905,-0.1761950878001354,9.559824733316585
31.95875221783085,0.05555591761011564,-0.22022547082734237,9.589281255960978
31.97547087992536,-0.5651849696345567,-0.14794927234617097,9.535548250342721
31.979299760070766,-1.3609541945675196,-0.14335592527702665,9.564797619888088
31.99492421879718,-2.0774008897084344,-0.16632845089578668,9.552669286407408
31.999047823585308,-2.982684596263103,-0.07922310868669953,9.520278705099377
32.014307968398576,-4.0325678789562875,-0.0708610854288846,9.59035274279474
32.01885266492701,-4.457504212574403,-0.06902516166067715,9.61942332648772
32.03477059646902,-3.3620386611600837,-0.05760917477009364,9.682441630753631
32.039436738443136,-2.7156547085143816,-0.08527113938986,9.54200788474972
32.05423520698256,-2.23899041658588,-0.1424161944509677,9.358813408619124
32.05928372841278,-1.3491467336461338,-0.18563659254233164,9.655761474963382
32.073741847839926,-0.5970217597931785,-0.1261487250192086,9.561434267234361
32.07902702273104,-0.15553819613725317,-0.1624535089431738,9.529116186333082
32.093177765291365,0.3784835813355958,-0.24360034658199198,9.57425030681056
32.098721631997634,1.2542523083633255,-0.1884139731981357,9.559532071041426
32.11261291138388,1.847579378647425,-0.24272602578001642,9.547015958313512
32.1187013625217,2.7403806367650447,-0.2668615864571007,9.571161009576224
32.13413385709124,3.884792997435873,-0.3218180106044916,9.541989255549147
32.14011735528104,4.274603505624247,-0.29691936002262387,9.55042460825042
32.153667853152015,3.952283391978851,-0.27718983139820313,9.525144040770364
32.15982561211502,3.344454952710853,-0.28082325310027634,9.551831570473185
32.173184292444844,2.833530966351347,-0.277310419699193,9.468841673601661
32.179551174856165,2.124219209381273,-0.25878947002013253,9.563202425766491
32.19261849814218,1.1462864376295523,-0.22697471663078475,9.602566053813721
32.19909567175485,0.6622209364021776,-0.18471527701268528,9.563061925799582
32.212830506779554,0.15801508039138132,-0.1897602355402792,9.588028790978552
32.22019416374383,-0.5019745998643607,-0.15296270741535348,9.51285381456343
32.233679573279105,-1.3733938415607962,-0.13863873786305933,9.567485148630757
32.24066654185255,-2.1417665667607646,-0.15513236539819183,9.541005291019632
32.25317935277799,-2.961205580358117,-0.07431619020021528,9.52598462034091
32.260302427939074,-3.9541546521809963,-0.06534773949012466,9.562982165799156
32.272688606559115,-4.46977759558238,-0.06432680240255378,9.613846071265922
32.280011985654134,-3.493464924150187,-0.09446564338175419,9.706523761484439
32.29221914541303,-2.6493809317688597,-0.09489170805168162,9.582904543071306
32.29972070465724,-2.3666638625356597,-0.12535112242358085,9.383205189952044
32.311728697698385,-1.5921075024679714,-0.20428211316548858,9.597810016240095
32.319348565771755,-0.7500609168501393,-0.14515531134647702,9.62068736349233
32.33123807664299,-0.1994824540142008,-0.10545564104140567,9.526009889041907
32.33905138081242,0.2758201147555163,-0.2238364728063384,9.609366107083925
32.35077856607719,1.119867001930732,-0.20785898142006176,9.561467230812124
32.35874421650136,1.817161525904651,-0.2548147391841792,9.538865560318866
32.3711096728993,2.7015264145120015,-0.2590043967633475,9.578313296823879
32.37951625710975,3.6361670268056066,-0.2862376125357724,9.566134195310472
32.39070966826952,4.233192606215143,-0.3386493048805972,9.565521770037327
32.39941093043087,4.038675670490608,-0.28556447878958896,9.532292007555574
32.411380787424505,3.3691793028268293,-0.326165823868846,9.469294646781352
32.420473039900735,2.792824051662698,-0.2735006988405731,9.51713437336788
32.43196222763419,2.1410023962210936,-0.25190090967107304,9.526597067548426
32.44032838404877,1.282056186614043,-0.22685859746622658,9.64248586254439
32.45147742099909,0.6731920488717156,-0.18706470197965422,9.574597615313296
32.45996812378297,0.15713966760508452,-0.19403086195132424,9.586557292373309
32.4709909003269,-0.29128962047324525,-0.16365595736076963,9.566745230937185
32.479699634957235,-1.1882258959651424,-0.11200457941999993,9.534782906965118
32.49053121907409,-1.8738349097250295,-0.20476858144727092,9.551454678540688
32.49945839094127,-2.7247772471998646,-0.09805170893778811,9.52119647977441
32.511118788445124,-3.7789608421137695,-0.057096114214992326,9.54175926542126
32.51993750742749,-4.375613300686773,-0.06376058142081792,9.582502777054994
32.53115843737103,-3.5313842532035165,-0.08566254283631818,9.656039617816957
32.54077463906295,-2.6835590153651587,-0.08820098092104545,9.60853579628436
32.551175772995705,-2.4127352423694934,-0.1222205279531719,9.392354244060742
32.56127950899342,-1.5118722272872773,-0.21291194448121134,9.556353924527079
32.573002121949564,-0.6013502328725078,-0.11191823097164784,9.611819572211173
32.58314256992591,-0.10650786953119354,-0.16702165379705317,9.516654694159305
32.59311125864425,0.4036328434263191,-0.22806657406720687,9.59993857496221
32.60270782254459,1.3066685038356998,-0.19504532692255705,9.55590379902167
32.61271759173341,1.931037225004916,-0.2589933737940591,9.527810043198906
32.622377250309384,2.809929557681235,-0.26023782409970025,9.582495440559978
32.63225350377215,3.8640666470449325,-0.303077337358029,9.538260224548278
32.64200511370324,4.220131774612196,-0.3210610296617448,9.57886383062478
32.65179372851985,3.9222306606344848,-0.28732522714417025,9.523091594101263
32.66168514682956,3.3424494959892654,-0.28612284275997885,9.520331738972956
32.6713270336205,2.870371694584892,-0.2717076525157301,9.51222954170972
32.682021003992105,2.207516661236323,-0.26460197245087813,9.54420289490694
32.69203348653762,1.249562010265343,-0.2342229267001208,9.59732332749238
32.70187172142869,0.5566823717478816,-0.17304491534129135,9.596309391702144
32.71171102939252,0.10028597623558111,-0.1818015344488238,9.569431203454037
32.72260899918461,-0.4750919774103112,-0.1421779897373452,9.569673907570136
32.732070278835835,-1.2251804707638063,-0.14689325876293816,9.534987865726746
32.742243019483226,-1.91844886984367,-0.19817566260330574,9.54864059888594
32.75165276898761,-2.773975902492177,-0.09331830179091409,9.531340130342546
32.76174817585841,-3.933146665719241,-0.06526267116941566,9.530663260787312
32.771774697615044,-4.212515905813717,-0.07846973761401878,9.634706979556492
32.78360208477679,-3.1818296598742166,-0.04553686160618422,9.679581230034692
32.79271874534534,-2.668497904249414,-0.09320137241992638,9.568240350141817
32.803103033696274,-2.3633316809464664,-0.11932147718653302,9.418113025792511
32.81269592781357,-1.5053715706433883,-0.1865565705394595,9.529863828737504
32.823963602567346,-0.5619233111432169,-0.1320936733208281,9.65372549675636
32.832726069783746,-0.15150009598922878,-0.15176466641395434,9.495537670968698
32.84441648236599,0.4220756201043005,-0.24210537177061717,9.597760054497432
32.85335699744023,1.3267935160472555,-0.2314864194231125,9.563453622326918
32.86402181979707,2.037226396769079,-0.2816411824498708,9.532039020339944
32.8741102283748,3.0569175074139503,-0.2650554039060884,9.560525744216784
32.88588488109703,4.0559826100821095,-0.3413597760241874,9.550568471781226
32.895129300153776,4.1007129297977984,-0.29453084789164363,9.533600987046842
32.90660452958369,3.6664184311155337,-0.266433426888244,9.549124301574622
32.9148897190997,3.1691430532509663,-0.28092673210903557,9.498262028339502
32.92689924359357,2.6292164729273075,-0.26050492486614474,9.52949032873201
32.93561631101216,1.8196808884819968,-0.26510052323045447,9.517599828097959
32.946713968664426,0.9708700913118385,-0.22911573891927184,9.636024676590454
32.95507749534921,0.40512209883086975,-0.16530368823664826,9.590762048583503
32.96632417544801,-0.06786890944531984,-0.20625566760728728,9.587745716182303
32.974674116780974,-0.6836623522705565,-0.15327479112440487,9.512943245595796
32.98600572893734,-1.459138154928031,-0.1641168934173217,9.555663465194641
32.99425898980696,-2.1054770192079695,-0.17297335254040583,9.558547263884495
33.005617735625066,-3.1013554305820863,-0.07304627018687163,9.537385478152947
33.0138513565213,-4.157209358576321,-0.0807463150183719,9.533753163416927
33.025214251752125,-4.18638450653788,-0.06953035861473442,9.633610123821736
33.034933844333985,-2.93552688402515,-0.08584766727378597,9.669599905922023
33.04694284040239,-2.5165614031782964,-0.10295865662691711,9.526731365126004
33.055371232897336,-2.1611338818703736,-0.13488113015475658,9.450371990790602
33.0677067149434,-1.232712668403076,-0.19446460486856165,9.584361849185631
33.075428339888205,-0.42985243608322543,-0.10704334381825012,9.60264191935076
33.087262920720434,0.027753097800394255,-0.19436505411980662,9.509580255552546
33.09497366759566,0.6082976952186905,-0.22678515144896577,9.621892109592034
33.106865438889024,1.4477175186520024,-0.2068672408564823,9.56482329836056
33.11457385120031,2.0788203171452957,-0.2738771891193625,9.525055737905078
33.126509361942304,3.0695493603273083,-0.2680601753816799,9.575720906856976
33.13416578814313,3.994162939030291,-0.3294175978767465,9.56174269370802
33.1461586626231,4.183449064118764,-0.3264606246870868,9.54863978855619
33.15370824761735,3.6236862595851593,-0.28628406140130924,9.542499430188498
33.165740647434184,3.153948008120492,-0.28541564433646727,9.51821077335522
33.17319265296045,2.658932973813304,-0.26592152937590385,9.52743718703942
33.18539282563895,2.146324492618993,-0.25140353234288754,9.530094202091881
33.19287166321448,1.1092929537894238,-0.25004606967109927,9.613999613812222
33.20504735196125,0.4814029471987145,-0.1686467233926601,9.597510506887323
33.21242139944966,0.05011989175818357,-0.19354457751116005,9.596269957422058
33.22462557169782,-0.49476169924244306,-0.1551380167575085,9.559932898723073
33.231992409887184,-1.30371796470344,-0.1371560983855833,9.551814189569113
33.24427889638087,-2.00788220271478,-0.1839440780054485,9.545529918656893
33.251580749651104,-2.9424243502792358,-0.059018721683494924,9.541062456358473
33.26392390627716,-3.970253837875468,-0.0740511405708857,9.545012509663808
33.27112408922192,-4.291100940533469,-0.06362651838456515,9.592198739542514
33.28358557771078,-3.32393100108007,-0.06270258698920651,9.692668314533845
33.29170156426647,-2.5511842667207185,-0.10096409846269724,9.578824014713714
33.30409148812915,-2.3764566161688534,-0.12838079434799604,9.469385258886726
33.311151051980616,-1.6470007842093286,-0.19219332781000553,9.485833899836752
33.32380454605595,-0.6562929431905371,-0.13705244874658037,9.643840678160036
33.33083513177455,-0.0963810676845326,-0.1509163344345852,9.54126565309732
33.34334030583466,0.2855540943077608,-0.2464860869189684,9.600342198381353
33.35042961184182,1.1475559174763306,-0.20678080478724054,9.606664492314
33.36298423204774,1.871754675783642,-0.2532629230543972,9.543752067481856
33.37030141974496,2.749548159576952,-0.256315811908687,9.550124994806076
33.38379988180238,3.7618916255940884,-0.31551491741454707,9.569392012807267
33.39047861509021,4.2628958157582915,-0.3270533450058383,9.516706124576778
33.40335281913183,3.857748722301747,-0.26099500814824367,9.558116752184416
33.41008055857961,3.287743560802984,-0.2995776389418428,9.54745889652076
33.42299129776171,2.888745404134128,-0.27920882415811177,9.508259098527619
33.42967550972201,2.3513375742430402,-0.2611870908034655,9.499060904299347
33.44263870669848,1.441464310642141,-0.27148590001915945,9.572578023275513
33.449229139330704,0.643966631187287,-0.20142585948597147,9.62819199004275
33.462212195827284,0.14474798864779254,-0.1817108106195738,9.56569222657502
33.468806810784415,-0.34250771529132784,-0.19961511348501723,9.582191884649454
33.481859823599905,-1.088289048602533,-0.113547026050923,9.568295698703318
33.488402385682846,-1.7734237452266077,-0.19607284466963026,9.55875782723083
33.50149187588473,-2.587872573078849,-0.09652552801579303,9.495261556528504
33.50806919705917,-3.7020176353276444,-0.041154853814917056,9.55859741523141
33.52212864854888,-4.379577926973066,-0.07151901151953953,9.577031993524589
33.52854487512421,-3.569456996353181,-0.06553428889223831,9.688724481657946
33.54176778514441,-2.5948239190980367,-0.07567940587661406,9.619624032014102
33.548058598743175,-2.4536167602236945,-0.10771132628577688,9.501044526602165
33.56139203633298,-1.944552752089851,-0.15047201984800315,9.468931244569392
33.567646591085484,-1.029151032636069,-0.19019956514741865,9.566308938254094
33.58105228015067,-0.206326578253974,-0.1301516293156042,9.611364418470261
33.58716969768734,0.09132084062283512,-0.21197440724871727,9.527971257255441
33.60059071412237,0.846839398542036,-0.20149078674737703,9.616904969304343
33.60678253290857,1.686296097951865,-0.2360403565626579,9.559326214443649
33.620273638972094,2.391409245637415,-0.27920532880270904,9.549183372284082
33.62633872501723,3.526348817313037,-0.2733114645612148,9.564320630579259
33.63992218066685,4.261844373771497,-0.3302357691442358,9.551673445339345
33.64591555948646,4.059751585056635,-0.26060546112996397,9.543863093795755
33.659786413934555,3.3780233245818394,-0.27883486117116085,9.565122442725967
33.66677149112635,2.9229354534435257,-0.28952635119832965,9.514453177910958
33.681434844070104,2.474825142399614,-0.25704584540264164,9.487823495813752
33.688058284280075,1.562894769205026,-0.2783705887810041,9.546049163603996
33.702429844649664,0.652949217917396,-0.20034690821974244,9.604712535322072
33.70872895074077,0.09606910060484494,-0.1842837240156333,9.5882156630916
33.7224696152631,-0.3285929639613376,-0.18985367472119427,9.552566185636447
33.72931507467276,-1.1735158796690008,-0.10335432414488917,9.566441839978257
33.742943869777456,-1.832942585409681,-0.18373376669012303,9.557794771194725
33.748882572837616,-2.790275421626153,-0.10881846932871558,9.530670936121275
33.76260207549384,-3.8772634393691425,-0.07025040051208033,9.558496840562468
33.76847247519807,-4.3775453011874035,-0.08277633964864149,9.58784278476745
33.782254999502726,-3.512672685309315,-0.05315973991123148,9.68003643794489
33.7894516808031,-2.4893542562582063,-0.09452476611309055,9.59134246053374
33.80401070761816,-2.413402414316532,-0.10673993730488468,9.539761340179803
33.80948173203003,-1.8801406243843648,-0.16716628695427227,9.45856945406482
33.823622006878985,-0.781658104650689,-0.16101184738186755,9.59878183666633
33.82903250708227,-0.08266427234571022,-0.12690428465038348,9.578020776100562
33.84357516489165,0.28971056035097437,-0.23022124127258134,9.529893256419635
33.84979732840995,1.1661240822110839,-0.20287371150661782,9.633679035755339
33.86377709013754,1.8974324271083853,-0.2573976247222359,9.536398352070638
33.86920232372749,2.770482440661147,-0.26139291831843414,9.561339575171917
33.883699853873175,3.863207461446842,-0.28508677412112843,9.590793350814902
33.889952402969854,4.300338682197415,-0.31205278925689556,9.523445834791502
33.903938376599754,3.7657485884543784,-0.26768897539006853,9.570669646890776
33.90947387886285,3.1889779815325183,-0.30784812727046323,9.554759382851655
33.923613452541204,2.862411783528127,-0.2633709339508546,9.563039322062146
33.92904876797378,2.4288341303465364,-0.24822801141844922,9.474357637993863
33.9432720150325,1.5535227646197995,-0.28083099841388576,9.524331155698398
33.948595378127294,0.6828730507489098,-0.2058501146064313,9.641554367066375
33.96285139165207,0.07537833112705364,-0.17205205707800045,9.57695475034152
33.96816797764879,-0.40647309517356267,-0.2062030576508832,9.588594859931556
33.98250283282199,-1.169025307411307,-0.08571216625340562,9.540634168608458
33.987757848608716,-1.7853774423538045,-0.19501931980129342,9.560621259849022
34.00215109947411,-2.8067773915551,-0.10914308338152572,9.488042874210228
34.007344041127574,-3.8467807924035573,-0.069046532321903,9.570776856459721
34.02173532852837,-4.385363873016656,-0.08369949545896586,9.55119398943086
34.02688236722889,-3.631376017789644,-0.07636459005161426,9.693785782169519
34.04137823850346,-2.5891548113488905,-0.08178585342611178,9.624177726759855
34.04647699302675,-2.4576841646602094,-0.12774633380210665,9.554962605344157
34.06101797352436,-2.1217886302427833,-0.15326669045099836,9.495025078070185
34.066038213982736,-1.1483682375249809,-0.17652279464467072,9.497741197336463
34.08061834077164,-0.1964290563009065,-0.117157451719588,9.629284507251109
34.08559755714586,0.15030885572564734,-0.2117000427988689,9.514002928251486
34.10025288859258,0.8447540625044797,-0.2078391082646496,9.602976917611318
34.10519797517126,1.5795738083056583,-0.21737033127824526,9.569446784353866
34.1198890514887,2.413213427053243,-0.267723211866806,9.575792434010582
34.124768272629716,3.530541869433457,-0.27456623401161595,9.573385137393581
34.139513930177614,4.260375698349016,-0.3374087568917434,9.537545509925678
34.144336869366946,4.161038369599323,-0.2677738430560003,9.523734462247697
34.159080503417584,3.5973602164821914,-0.2985102368813985,9.515498803613738
34.16411834230988,2.957303421098802,-0.2878819579749667,9.5771711043281
34.17997880315639,2.6068169192837636,-0.23363043549228565,9.477695027265534
34.18624282702978,1.8087451244877313,-0.26448366242034427,9.489569496256141
34.201470244874194,0.7672041111155743,-0.2140985221697936,9.609889399905498
34.206057324831306,0.11744552624820097,-0.171791020920807,9.575717434027556
34.22097791430759,-0.26846039786527826,-0.2039730296862012,9.590153490232453
34.22575115631455,-1.0879621761920495,-0.10226974714467474,9.568070437640309
34.24165935426632,-1.8665698276293934,-0.1929528669633334,9.543981310742486
34.24624915649465,-2.736789781724249,-0.12575801991015775,9.494372222420909
34.26233524706372,-3.8218881449854494,-0.061700298771945945,9.553574957940697
34.266712781285584,-4.36150296050125,-0.0989293510094147,9.55834956190102
34.28192405925999,-3.477517317908323,-0.07240166243941425,9.657521249451602
34.28631423111883,-2.647442184695917,-0.07799925245203561,9.579693566039989
34.30156210398275,-2.4518268944481814,-0.12417239768314094,9.575233508108525
34.30591110935772,-2.171609257557832,-0.10274948037869697,9.492667145193147
34.3212200003832,-1.2376530029902193,-0.18719281143159308,9.481397601611667
34.32638966902873,-0.10224782520693065,-0.13001267412777023,9.639700120117315
34.34185445964712,0.2740680326048282,-0.2200131253713633,9.52032158490594
34.34604244918047,1.0178573747294286,-0.20377893858903412,9.5793243045737
34.361408827403,1.7725922833338545,-0.24254604408316918,9.58021515095447
34.36560952552231,2.523446710176313,-0.2785826251435303,9.560241228670565
34.38105127707697,3.6808182258207127,-0.284290671015815,9.586662616280877
34.385207230487744,4.354841491749907,-0.3062099419079523,9.541371217283288
34.400691415680825,4.044927471244902,-0.29129353858573326,9.504788013440328
34.404807598080744,3.5162176163757355,-0.29690416798311914,9.545431044012522
34.4202845814342,2.8954571226414143,-0.29196250829140086,9.570228271664067
34.42434612730453,2.626938900089823,-0.24369505243807543,9.54981648390478
34.439884036549145,2.0114122652086075,-0.27527218118785923,9.423209265934238
34.44409818662287,0.8873363745084428,-0.23679953285337477,9.63701807654406
34.460574209759585,0.1812748778751303,-0.14745986917908532,9.6052993971638
34.46444913607611,-0.21501258752378308,-0.21619311173679584,9.572462673573618
34.48022647031956,-0.9559944619488786,-0.09805889530511129,9.556774229962933
34.48405643545365,-1.8129201214728332,-0.16506943017265807,9.594213276685297
34.499860284341466,-2.526287639116208,-0.13808388444154165,9.498210923211998
34.503590960736844,-3.6614470797090046,-0.05946222608880957,9.549799385282398
34.519385939911665,-4.4906012315602775,-0.11414004905392666,9.523804745117175
34.523106303583866,-3.989922102341099,-0.06697047324526495,9.676536139222334
34.53951691390919,-2.788435994634597,-0.07028657189248734,9.606222352447189
34.54432253523896,-2.438916408154355,-0.1157440682887103,9.561578897762761
34.560796854549665,-2.1465613049871104,-0.14587668226212416,9.555867465437075
34.56422294486839,-1.4296678704230694,-0.19110699430698852,9.44536052975249
34.58166796894566,-0.2313016153303362,-0.1612054507349061,9.609824605446226
34.58606128913279,0.2823564463765488,-0.225455996439159,9.551206513618604
34.60190642340333,1.1141855808446552,-0.2318644266202569,9.557637199999798
34.60549544495079,1.9305296489606132,-0.23499148890075228,9.56809242723891
34.62145437989361,2.8434392360791967,-0.26433564839662205,9.565876586963203
34.62509381236984,3.738748264814902,-0.3067238257092778,9.542431674978921
34.64120147670706,4.341640120449199,-0.31986949264129855,9.586337086363184
34.6446725564094,4.085587722484987,-0.29968220314162347,9.481822828783857
34.660845899334895,3.4365755593351204,-0.3074199876682958,9.579299522325439
34.66418230062781,2.8694926320802456,-0.294100724169738,9.572770964676433
34.6804652651888,2.603573041134653,-0.23166440204231725,9.56642807741837
34.683755539395094,2.0305647371850855,-0.2841538151273902,9.387250421349714
34.7001173459389,0.9990150767169536,-0.26085551269725854,9.605116814404388
34.703259165972284,0.24900915989914188,-0.15364429026062204,9.629833371316776
34.72051870421183,-0.2012459805746983,-0.2228973288338958,9.549801553545821
34.72504920779246,-1.184650346665722,-0.10258934071172682,9.583498576543931
34.7412579265053,-2.0385032844469197,-0.19823500266151817,9.538867305493001
34.74457793546899,-2.8931593171639327,-0.0809587244928902,9.518868309163198
34.760885158863985,-3.8304588265630644,-0.06825922177548123,9.555075987171119
34.764123170454404,-4.475166948627847,-0.10105816375899675,9.540270773785124
34.78054891928249,-3.855421993244629,-0.0789685452091403,9.62309394304396
34.78365732257064,-2.6793994333042312,-0.08076720565948443,9.601222093811028
34.800200171414076,-2.4827345809465355,-0.13246663371974118,9.506124044362588
34.803242485291996,-2.064391558118367,-0.14057506506563766,9.631820957814694
34.819852256072245,-1.5595516295930125,-0.16100630878300473,9.420588295693827
34.82282976486919,-0.4222400206930713,-0.16064708064289152,9.578068175358387
34.83948782947863,0.28382449568968254,-0.20832410540741328,9.587743453473493
34.842334913432815,0.9758609757961038,-0.23381673400745567,9.528362914324397
34.8591217267655,1.770447185635791,-0.2093381417544742,9.562908231977636
34.86188579631322,2.4583270482189867,-0.28394853241313256,9.576879847248492
34.8790141494777,3.4831972425551263,-0.27595365987148246,9.573552077677565
34.88282126113568,4.199321171325867,-0.35929330703567675,9.538946498214669
34.90066624734008,4.144210034078134,-0.2897244666463321,9.504548365469084
34.90417817097838,3.619874915566818,-0.309721254373394,9.540483164674892
34.92091405028101,2.8885480672575,-0.2782120581735088,9.592295334692635
34.92367886312037,2.5219253751178408,-0.2281401164753836,9.568440232090857
34.94052195483898,2.007133242447787,-0.25396688986647387,9.397028911088015
34.94388340341521,0.9045812268678454,-0.25726332719264017,9.587402004628618
34.961481500301176,0.15895726795707865,-0.1435163259818161,9.634748934809704
34.96475649820325,-0.32896640225865803,-0.2180604300914024,9.532063966704719
34.98186253866646,-1.2268762080056301,-0.09717189056144611,9.567059975383918
34.98431227607855,-2.1809971947367575,-0.15014908861400686,9.543159703862122
35.002043149065535,-2.9875519239148467,-0.07877453952495563,9.54474531216341
35.00514545537148,-3.9825008784980014,-0.049248834721582736,9.586681629474027
35.02299256629336,-4.527213498563777,-0.0691739668598094,9.571049839750783
35.02549774804009,-3.4877008862216115,-0.06790585357468085,9.644428607535712
35.04270242691411,-2.6179655447246675,-0.0877762506536384,9.533868041844093
35.04516661039912,-2.4009115093364026,-0.12786345058032259,9.568028431112657
35.062232290637574,-1.869016654742188,-0.13704698982910685,9.594628465864545
35.06508197203129,-1.198541516844496,-0.15910595982440223,9.385443519768502
35.08315287129787,-0.15291776623107342,-0.16123604380630324,9.63655425656114
35.085178651033985,0.5358408515014246,-0.23321072670270404,9.581723077876891
35.10271892341807,1.359531902375166,-0.1851702278219319,9.56239598247397
35.104716538080254,1.9787283372116173,-0.2571968867594531,9.565676526517992
35.12232572199842,2.7512370062237688,-0.27176170517804044,9.5877450697853
35.124311451087614,3.8241440168684258,-0.2981676055371014,9.537912940572475
35.14197597623481,4.18988957872854,-0.3274917226768559,9.576096620702025
35.14389409099682,4.210389094388849,-0.29135916598366485,9.4875188048035
35.16162904494221,3.7022231318768566,-0.2984401633835936,9.557401062425836
35.16337434611813,2.9147883901521063,-0.280630619071252,9.579639590135551
35.18142305223149,2.45656382143508,-0.22722291489748964,9.59004539258577
35.18421826310685,1.9722748806223238,-0.2580812539389662,9.439103996563718
35.203564672509735,0.8024943503317643,-0.2284080404948305,9.561822671030011
35.205644862926114,0.06837887821184717,-0.14845416181519996,9.642111826367266
35.22345246085183,-0.5099154025822774,-0.17725022623629888,9.54228307878995
35.22521888235496,-1.5011537421889474,-0.10500702056117235,9.597029685202
35.24309883194934,-2.322096920138514,-0.18262419042913214,9.554139375104022
35.24470274098289,-3.066280251468711,-0.06717359247307689,9.556910194110456
35.26281688451391,-4.083179931714175,-0.05515313948368477,9.566322380205143
35.265274060111246,-4.6285998636963255,-0.09529831806632358,9.555031385128
35.2833563633353,-3.48149441577687,-0.074526754282505,9.645530510045615
35.28487521524036,-2.5175198764866913,-0.0928175650152129,9.523661576940064
35.30298660763543,-2.2393731101613628,-0.1144544073581744,9.54785526983668
35.3044640353559,-1.8236373553448,-0.15359840983881504,9.639022870895715
35.32357602353837,-1.2588140700936508,-0.1326093199302102,9.400842279698423
35.32498832873303,-0.27171681341919185,-0.17024289502374726,9.565370138185836
35.3433149821883,0.5180290940559986,-0.23349314953355024,9.620552683731031
35.34455484713465,1.4466754216075879,-0.17053083711684763,9.516162708152327
35.36280474747569,2.115788119849381,-0.26429459512729564,9.587424525674356
35.36412169004389,2.8908325898214144,-0.2968782231629751,9.573370276309316
35.38255326853911,3.7877931875148425,-0.2717900243445933,9.55333743452672
35.383694340386235,4.245762381798929,-0.33563081459943506,9.576772462177694
35.402214578523306,4.2613805451794855,-0.28771015951657847,9.52057841753772
35.40327378883481,3.7291153637547563,-0.31177728271772487,9.517476609471924
35.42183054766626,2.8575206391824093,-0.267170644935403,9.569753255019341
35.42278386396408,2.2915432257508663,-0.24294779654317966,9.643792457933039
35.441476819220355,2.0297583205621743,-0.22922372981542838,9.415659071580322
35.44236520752258,1.0904415036900938,-0.29346489009876825,9.46304878285655
35.461134584782634,0.10620338539346524,-0.15655327532150032,9.683108897682448
35.46194198754715,-0.35720300683868145,-0.17834005999483127,9.55648475116415
35.48071333851478,-1.2075197361367704,-0.13305874815644392,9.59684962731857
35.481446060411486,-2.036908959759642,-0.1559198328412216,9.556751655895043
35.50038414402681,-2.926242910191659,-0.12010015666037335,9.548184576875709
35.50106783466095,-3.8941422129948493,-0.04160934804734222,9.568631835038548
35.519980763765524,-4.821675495022764,-0.09829009996000161,9.553619760935913
35.52111008221024,-4.0084863742005705,-0.07441447019577073,9.620112959292058
35.540815814389944,-2.5389986082301634,-0.07313341544724297,9.58914924061443
35.54108958316705,-2.341646235330021,-0.13047756292181859,9.47913676223972
35.560416717273924,-1.9036047285286346,-0.1572463964734913,9.640298217673712
35.56063446054787,-1.4626932715330534,-0.16226392678186422,9.513445195611736
35.580003533225394,-0.6859720249690969,-0.1292695298186927,9.44238906116514
35.580217118339625,0.22714283394332663,-0.2406017162022187,9.667661861580173
35.59965761848595,1.1022919102576496,-0.21980008670260537,9.576570957494466
35.600619251073084,1.9322708753976934,-0.23895777101952737,9.520541180397323
35.62026634476744,2.5825422608147397,-0.30980306318009465,9.60591526888279
35.62050089769309,3.607003729060955,-0.2510339661619232,9.583272105487259
35.64135605967055,4.299490080297479,-0.343071207850628,9.554953697522537
35.6418213999159,4.328174459227386,-0.323903719685103,9.515376645132243
35.66184728808341,3.7615125576219435,-0.2998916414544699,9.54014778720628
35.66248607358393,2.8577511607646215,-0.28466094550978943,9.544568658628931
35.68219699679757,2.2136665177285413,-0.23550389765346166,9.668129309028611
35.68201243087209,1.890831131753768,-0.2331182383258973,9.478926298562287
35.7017794490444,1.2105866587659835,-0.2767019625966477,9.3949003756149
35.70219893620887,0.1498784725715394,-0.1587055383512964,9.65202958402356
35.722658352190585,-0.4644695255366214,-0.12289840748663966,9.576706338258576
35.72201788147798,-1.3863624186775323,-0.12616369454338142,9.589465463090729
35.742258506524465,-2.3369534317472573,-0.15013127759055891,9.543681595301225
35.741510456988415,-3.06559262544676,-0.09561363990731764,9.572337730915278
35.76246688669951,-4.129014748672249,-0.037084699119247284,9.591225605471275
35.76226855018787,-4.821291648838387,-0.08254035263421033,9.578427338062875
35.78246523001785,-3.8273041686203437,-0.07535627429803685,9.621457953339803
35.78169049083967,-2.510963793160119,-0.0890345747485547,9.546902480166713
35.80214943933303,-2.224370962377055,-0.13913894570755017,9.487007607295517
35.80127160432218,-1.8145432200817326,-0.13780868324797646,9.614363564139726
35.82183911941636,-1.363451926105396,-0.16594082760958406,9.547040427888728
35.82082929046059,-0.684589040261437,-0.11024703110757164,9.40851432571884
35.8414994046014,0.2932383363921622,-0.24661566235282353,9.651928475046832
35.84031699653592,1.2309010458231906,-0.20180253941342052,9.580527957162456
35.86112470548196,2.0419726123755346,-0.23036858100712873,9.493886536975227
35.85986325583324,2.727990851572534,-0.2892123709988391,9.62285358119699
35.88081494238786,3.5646750379774153,-0.286704816667864,9.545592360149763
35.880187685680916,4.305384843693612,-0.33696928044247426,9.570033377617872
35.90157944843977,4.407965327465605,-0.30911042409584666,9.516923673114716
35.89987602107699,3.851824223231577,-0.31560540286723054,9.556073767660912
35.92121473300857,3.047588715260146,-0.27457849364121956,9.49950645047512
35.91935650603547,2.2341806752973565,-0.2708910163964341,9.644240191029443
35.94085195053138,1.8500384404493746,-0.21843517037794932,9.591161312615577
35.938924912308416,1.3630203030746038,-0.2607043436656877,9.381212505629565
35.96068548712081,0.3994872507635454,-0.21960869947939107,9.615392347844026
35.95953502296062,-0.37368268312970143,-0.14274000973187692,9.596459591072481
35.98113393204066,-1.1654157334566375,-0.13257654722456652,9.580091085180939
35.9790526396457,-2.0289193459512473,-0.17444885378524824,9.551801936003558
36.0008710274958,-2.916123129793614,-0.12005405481318945,9.54708113802323
35.998594349474594,-3.9376717901259726,-0.03994712108055601,9.586832004869516
36.02054130966113,-4.807146998724308,-0.057981468331251305,9.577098909304654
36.01805754751622,-4.209664697844801,-0.0776916741925294,9.648274776561886
36.040223139241554,-2.689361943173452,-0.07873999525851098,9.579575209814056
36.03756771658122,-2.284173070436422,-0.12331164900174824,9.469795698999446
36.05987443714237,-1.9572278831507042,-0.1619126790602312,9.5517059523607
36.05715330811124,-1.4115410311105754,-0.17138449933756786,9.634940567753414
36.079588180668196,-0.8691040878736952,-0.0960091172712685,9.478441354782632
36.07660813702969,-0.15065560300264338,-0.2091848717137202,9.514369888087273
36.09926357139895,0.8720890828809221,-0.2584967520083234,9.662483690061048
36.09614482136437,1.93594930698677,-0.18475758230641387,9.493704455868412
36.11896623160725,2.4619729424181425,-0.2767784065408187,9.557226533146304
36.11568413498541,3.359567300980174,-0.28457471337441614,9.586916451269587
36.13864896628846,4.2580991748700585,-0.3043622849827092,9.558672536571002
36.135949169029956,4.417105630315645,-0.3550411081841385,9.515529746678375
36.15945464317145,4.185155437661454,-0.29935688917405645,9.527339127363971
36.15556592672712,3.295628212194317,-0.27977512682262534,9.531396970957651
36.17906938401774,2.4839541551526523,-0.2774202907812465,9.523130650338373
36.17511624708554,1.8814406919565352,-0.20811766773111354,9.689892461480714
36.19878564140138,1.5046166027460495,-0.21028799877018262,9.422874559598668
36.194637413565154,0.7204303442489467,-0.2377834086907193,9.427672874322619
36.21849797393928,-0.10947355978714865,-0.20687249405851244,9.63030953096325
36.214113772406314,-0.7620388386071991,-0.0955545619687322,9.58453146633382
36.23818078915245,-1.7207607096249595,-0.18762203899463106,9.568815104123223
36.23359542369072,-2.645301153732103,-0.1435257192826772,9.522894176132976
36.25790171511051,-3.562347798445693,-0.044252615800522054,9.601974922748443
36.253104738484865,-4.585553631789288,-0.06320367173827911,9.558410666242237
36.277473446153074,-4.693936682530351,-0.0801017903701006,9.608744122117534
36.2731193418205,-3.2712523306085455,-0.05661232586808558,9.635081565823885
36.298404575654274,-2.3328757112705,-0.1237257514613811,9.493737710326139
36.293424915691745,-2.05590260802384,-0.1408857479528146,9.54427529810955
36.319273542337335,-1.3980620257909866,-0.17798116143676052,9.577738078067204
36.3133956377659,-0.9703059114342639,-0.12098003283023596,9.566098479806124
36.33895845012341,-0.41562326200077604,-0.1413757748956382,9.453455256228068
36.3328514961423,0.567735748627041,-0.291619678382913,9.625923864011732
36.35864032852607,1.7605516504776624,-0.19364063500689221,9.589213561753052
36.35232925635958,2.4398384064863023,-0.27535501235486115,9.520021219317885
36.37840195008553,3.259350246716307,-0.2818437356968245,9.602138319108839
36.371793772663594,4.103336148392045,-0.297976368428905,9.571311169220477
36.39811383352159,4.4981622793122185,-0.3240009964906233,9.548441815022485
36.39149464295786,4.221166453718772,-0.3329988541227077,9.503754014358856
36.419036017447425,3.5083180749371916,-0.27872539473882585,9.545602384618078
36.41161356624441,2.6257136789241478,-0.2875665622255933,9.517350462983076
36.43875941012635,1.9398835611496656,-0.23643397600229288,9.697346450982007
36.4309440171859,1.3762520460746164,-0.2331166606645988,9.521285912932171
36.458525913700036,0.8402593822684522,-0.22120416394278916,9.413538288148775
36.45040067222737,-0.10360987033542716,-0.2169416989288477,9.546161888351385
36.47849376873393,-0.9197074958478159,-0.10213304994868504,9.611991330278274
36.47072156476339,-2.165650953431732,-0.1611085362008498,9.521492773513376
36.49904085023866,-2.9179755298777583,-0.12683293350933325,9.538984256638004
36.49118969904016,-3.9797254007033813,-0.07040591684234776,9.55702689662897
36.519772520193264,-4.416141729179433,-0.09474415877702118,9.604771546616277
36.51058942034637,-3.827890221686737,-0.0877062905203666,9.617912510932882
36.53980691511109,-2.423340118618284,-0.11336284339116619,9.616537767942562
36.53092973447775,-1.5704142607354383,-0.16262763775705982,9.449597970101365
36.56060518856701,-1.3432806769204795,-0.18040060585384224,9.583731358811304
36.55035364591123,-0.890396185247262,-0.1699381118978263,9.557714692601767
36.58037204992356,-0.4608181411068401,-0.14392054638146917,9.610902359330657
36.569958717590495,0.23526112061934226,-0.2027033574642701,9.528433538375598
36.60149762637639,1.198423131300355,-0.268871730732045,9.565311005017398
36.589817445565366,2.1152344068392237,-0.22312715435392122,9.591844863783894
36.62219153581704,2.536422988607062,-0.2661541987359379,9.511269913856976
36.61017002666466,2.8648752862747098,-0.24713955487465195,9.577573033737407
36.642205149282645,2.8631498453936017,-0.25031276772875366,9.583613516214951
36.62946002809188,2.760532422722047,-0.28445176169736386,9.536595327511586
36.66219732482051,2.6009522572338994,-0.2568366716618828,9.56216179880677
36.64870599946442,1.9374441632945967,-0.2625328937333871,9.522367527572616
36.68219243163046,1.1978634751595163,-0.22700627534361292,9.575173456343832
36.66785616030585,0.7498022536507948,-0.22090515880376035,9.575654527550247
36.702165140878954,0.35371430433731865,-0.17123380811528224,9.6071289764817
36.68697323606585,0.1589776981900557,-0.20488656119186416,9.482878870592515
36.72230811652119,-0.3931571458131392,-0.1845161595367551,9.51413198376252
36.70609698878669,-1.1447732741605092,-0.16133942598252218,9.588321107927825
36.74296387850589,-1.5949990591102505,-0.13080383206562482,9.587233664835066
36.726362387291594,-1.7936163459391068,-0.13517995338234104,9.576420557807646
36.76345261029012,-1.945933958038263,-0.11779344450724327,9.595681743447265
36.74530579435401,-2.020948519570392,-0.1107347293750093,9.600212668490894
36.78360165913389,-1.4307610166716256,-0.16559670693314005,9.56721827696601
36.76429584161374,-0.638603760799061,-0.17822142634055702,9.5605862717748
36.803850749267156,-0.24396680947593652,-0.18761213227367932,9.513541417934137
36.78325157807204,-0.11083336389143213,-0.19666051199398096,9.524634495432808
36.824174397083006,0.030141830802302393,-0.18799768152902768,9.553525846224261
36.802453274897886,0.2650480896942297,-0.18887820653748189,9.595619900325472
36.845784845015245,0.5097335103139218,-0.17094532693023487,9.564985372369819
36.82171360119227,0.7808989987022676,-0.22025566134150484,9.570261106708585
36.866229929324916,1.0583024971184056,-0.21273011530695038,9.539578685960556
36.84027841134211,1.1254562974077935,-0.22125133150363327,9.563481519351617
36.886878994332555,1.113019503807931,-0.23914630802587203,9.563124558259393
36.85880363510721,0.9247357799146486,-0.22825496077237623,9.486749651502368
36.90766923339032,0.8040520479553357,-0.20876672882688294,9.59322236513526
36.87782803978113,0.6341051343267268,-0.1947751615651785,9.55461091820949
36.930440093552505,0.3263734621129298,-0.20822799681729806,9.560184083317496
36.89794043665138,0.09172941424752684,-0.2065012847738389,9.55378045334204
36.95298370831291,-0.26667368666569397,-0.1667506064523798,9.574731798268436
36.91593854597305,-0.6990944785680744,-0.1719715183248268,9.53371603511542
36.97450027923602,-0.6598558296100632,-0.1743390095541094,9.580422262081589
36.9333572271843,-0.13068517552447328,-0.16789127901646791,9.594582913047269
36.99649213820932,0.19394264168957942,-0.19124980823035417,9.525492812610889
36.950423996036434,0.2023701585680701,-0.19973158854071624,9.526300926599589
37.019008234800076,0.16349013742009771,-0.2092843560682579,9.541365674652193
36.966690715424846,0.05627103166741764,-0.19868136083072824,9.565121332992316
37.042269390652365,0.0797125435129289,-0.20488416775879317,9.571624840860208
36.98211774912487,0.12599879420005103,-0.18894305568409184,9.552689350238325
37.066665468209045,0.15713064002444993,-0.21020661223129938,9.555505031590954
36.99617752259733,0.09913454841015391,-0.2059101708415544,9.556255047213686
37.092874177421926,0.09383221225626424,-0.21297444601494028,9.556720698772903
