Time (s),Acceleration x (m/s^2),Acceleration y (m/s^2),Acceleration z (m/s^2)
3.007478234352025,-0.13503806365596102,0.17326499713766574,9.468612360574914
-0.7401292292476523,0.11947786531570707,0.22742605525579762,9.683614815888983
0.44686894206839856,-0.04459933327211907,0.19604133189169368,9.70911430578977
-0.24567180509580788,0.1641892002299015,0.2171970006367237,9.784489652294939
0.26542924266473766,-0.005728667673774891,0.2144172355443408,9.542986779937117
-0.11408630901310676,0.11017284508442787,0.2273062954748666,9.742877943976954
0.2145217014639332,0.007772931398049216,0.22150387258494295,9.783841994941668
-0.045022982186701616,0.08841847850432256,0.20344723951575494,9.716502324764576
0.19856711730090743,0.06287107661879282,0.21059616141061405,9.650476132033338
0.002470740040891895,0.09293776986448511,0.2156859809198011,9.734692617268552
0.19687087725428562,0.12481699808199523,0.21996738179358377,9.823085492065413
0.04003655122845019,0.09731386627756601,0.2438989645862749,9.723199662887898
0.20236872918163704,0.08735598356410847,0.237807548690861,9.659111544429482
0.07222440296046587,0.06633260792606142,0.24557037865146966,9.741181566764148
0.21199491248743418,0.1351047769544699,0.21692729146195555,9.820020343891237
0.10117399960059435,0.028326410319416736,0.24361975551625797,9.715686770589132
0.22420826109437936,0.02149789042306499,0.22905902155006078,9.593071964491035
0.12802374500874109,0.059652091186904,0.20118948709880358,9.73962734254526
0.23815032735497593,0.01805295323498605,0.19826452488021995,9.75277052250467
0.1534366826536913,0.08583439078533855,0.24098463274454388,9.71258097077366
0.2533015840645519,0.009243840378546817,0.20037744175166824,9.582883927700022
0.1778172029826402,0.08205803808353986,0.19520110496630852,9.786539425215825
0.269334446327924,-0.007139524099086668,0.22484908143312113,9.710037612707751
0.20143878300276397,0.0656501245212921,0.20406176239377924,9.672858950431173
0.28602906237893017,-0.010124171384502384,0.21972168270400508,9.610909079179317
0.22448175062507147,0.09070586863830224,0.2068457524923949,9.776214933214755
0.3032327024943569,0.0023473833865993205,0.21940223173216772,9.688978113777742
0.24707453806189256,0.06852575647212245,0.23848118294087006,9.623139601610417
0.320836405900897,0.0825711366440656,0.24417021866853733,9.725479351782504
0.26931031849403975,0.08486115729716864,0.19392010914398058,9.785134598205936
0.3387619574302274,0.11910786078820543,0.24021825995055998,9.785963219395576
0.2912590022837404,0.07397435461435886,0.21787574358288508,9.635438367693043
0.3569444158459325,0.08280076576781883,0.21178782949765781,9.73918904457561
0.31296941783858184,0.05350196311407796,0.21796988460481118,9.77300019693055
0.3753427980209053,0.10186780622865223,0.22832829579107536,9.7268431313399
0.3344857788232853,0.0437037949450704,0.23032819767392604,9.643340162591246
0.39391981479666016,0.05751032974739694,0.20839979933675296,9.70422054515618
0.35583841818681455,0.12215332704706804,0.2420269421573352,9.820382715478633
0.41264726568381255,-0.0030365601157638115,0.2079015359211313,9.669855603943143
0.377052513757033,0.0392494911283389,0.22384559472282284,9.620658210584445
0.43150257746283077,-0.006227376465696792,0.20001463807100603,9.701112674646835
0.39814848072479603,0.09803736061848733,0.2311413763607241,9.775538931684602
0.45046916402671766,0.005024523960633637,0.23295007831971792,9.61739032361601
0.41914245671011985,0.10372101743018276,0.20937377960025907,9.652400444042803
0.4695272181208713,0.06034656714573111,0.212355103347022,9.771303752414127
0.440048077943969,0.06341883759733195,0.2208428686923444,9.736376575192708
0.4886692461773583,0.05938448021873003,0.2330582445689229,9.683723595806148
0.4608768742951889,0.04174531875649019,0.22514035710920746,9.651805050126407
0.5078833036023958,0.08141592480131027,0.19594647536533366,9.786102272154714
0.4816381328916189,0.02165850719160759,0.20755579489128564,9.71826903089043
0.527160762174314,0.09576244391406342,0.2590432324202896,9.694435835746411
0.5023398034570918,0.04452012698853363,0.211032600678668,9.66316285625976
0.5464942717329915,0.0938663321398733,0.22154845841861587,9.82854617379135
0.5229891307905984,0.08610475489756028,0.242040236607769,9.803347664583338
0.5658785681069952,0.112795150934878,0.2523594076268112,9.69150850781425
0.5435901563420744,0.051368070691641746,0.23726419264822668,9.68111984367314
0.5853058129432138,0.010371543279259843,0.22675021376945337,9.732790642955942
0.5641497414990482,0.06507379228574442,0.25723547610999464,9.784503628256179
0.6047736809129235,0.005060205034614539,0.195589534703875,9.622420674401017
0.5846714438420043,0.05100681891751325,0.19961812886990143,9.685916234242171
0.624277491707936,0.007697766932552464,0.1985932817299382,9.768836896010198
0.6051590047266948,0.08557807724854512,0.2095813191029773,9.72739386799934
0.6438137643540566,0.00752928378509697,0.21760909704288578,9.603922453397063
0.6256156697390302,0.07505899620324648,0.2273152395394933,9.709395573027573
0.6633794999541058,0.010326603755773786,0.21552073732277383,9.798883255100062
0.6460455027543466,0.05179065874017554,0.2252381564339019,9.691057361620084
0.6829725237574791,-0.0011770743983273203,0.2161529487226532,9.623763988965628
0.6664474270484732,0.019987874621977157,0.21294618337730142,9.654749121545853
0.7025886784519889,0.12013745949482983,0.21632264173357224,9.861151335527754
0.6868272449228163,0.05637793398894698,0.2305346929124973,9.651598042316659
0.7222277770450461,0.10584707339400411,0.24446902090926997,9.706308206355953
0.7071857147491135,0.06783436644762428,0.2425960558643632,9.761450322911658
0.741887316030381,0.13092178044155087,0.22090891093142873,9.805746831620189
0.7275245965943967,0.04901859889620904,0.23764855908418295,9.643101358678624
0.7615656390041977,0.045531276755973314,0.22908123277501077,9.6403421112183
0.7478454519926522,0.09657610760230065,0.22374042583986772,9.76512727150374
0.7812612960879706,0.05018341404023419,0.22106022986757848,9.775370289994228
0.768151030005008,0.10292606042067279,0.23969300318172984,9.687078207896267
0.8009739462357355,0.0037747054883398735,0.25236499128673384,9.674626789627712
0.7884393747825299,0.12453778798074865,0.22999844877618178,9.838555031967426
0.8206990281911914,0.017266578849512965,0.21400830306988272,9.738200256258686
0.8087133836845869,0.045759298811680886,0.2346134663149978,9.617703915461622
0.8404391685328054,0.019432001654866592,0.21934953771480245,9.663296630623686
0.8289748287520528,0.03827104607553657,0.1885276735310049,9.758889997313752
0.8601919608318276,0.027612735791672408,0.19883340764594643,9.686725416897172
0.8492240226052179,0.057739371250944804,0.22653976650992103,9.597983836672991
0.8799566001796614,0.10630878539483739,0.23759219792400052,9.718207216692269
0.8694617290302871,0.06932917303358349,0.21245398228707008,9.7259482510988
0.899732700740392,0.10491676671545437,0.232984570548978,9.749839087021273
0.8896904566663667,0.027757719077978468,0.21167998950282835,9.604843054461515
0.9195189849198404,0.0798278728557687,0.21057782335974776,9.704115057415535
0.9099067007374042,0.07927537941011395,0.23041385563992517,9.796690498560103
0.9393133036612586,0.0927922472946829,0.24548674647875815,9.688360071698844
0.9301143822418029,0.09636370090907152,0.22932744709139855,9.63537037183741
0.9591178887099023,0.07239558316916826,0.2052252329503022,9.766697475007392
0.9503135526965475,0.0959353884617823,0.20671484170042423,9.808094399778225
0.9789308671757532,0.06786857097292205,0.21840282911695477,9.671969104888763
0.9705045602488669,0.10409916020366669,0.24309592025753457,9.64663383500061
0.9987517762789275,-0.008267997312120561,0.21786976625387583,9.738743422696714
0.9906878427772432,0.08066575154079196,0.25633721283563315,9.762490383226847
1.0185811355147705,0.046783560396461706,0.24229022073251924,9.675847861972448
1.0108643819323146,0.05562242727205823,0.2594214730313046,9.62501321559342
1.0384152441203873,0.01936214942179627,0.22522757530930382,9.771769861812366
1.031033492453958,0.03965924346761877,0.19063852936222844,9.761545929975822
1.0582572358184352,0.052300826653032366,0.23431339219949165,9.61482839669816
1.0511963795312453,0.006901595603234918,0.18420021398099087,9.634591893720748
1.0781054152595235,0.07365173702893076,0.19716881898199212,9.78697169753435
1.071353230602366,0.0153237512967127,0.22013635207690188,9.703943648776043
1.0979594675655622,0.04679600483263558,0.2542576110737366,9.661022164066477
1.09150437380586,-0.0019487419381918432,0.21445595043812524,9.596984627978548
1.117819053142645,0.11515434854791372,0.1973292208453174,9.816782311071593
1.1116502802775006,0.11817012686414671,0.2281207624322973,9.753665814050754
1.1376855628578875,0.07642514720074896,0.21733673437532317,9.671349792721399
1.131790803291083,0.0859313978585593,0.22790935938721424,9.76746265035659
1.1575538457056807,0.09221711510997,0.1993428683291285,9.785978894526565
1.151926397164771,0.09369250835618768,0.24042264914203673,9.760892843592309
1.1774284811131777,-0.005238423744035125,0.216369800433666,9.607915613527615
1.1720575097922765,0.11314803021369514,0.2291298381502531,9.720890375008759
1.1973075894976997,0.02673280915874478,0.2161975899179338,9.795268375286854
1.1921842499333057,0.08842217734899717,0.23651392931967763,9.750214849632949
1.2171909629331013,0.045482975351660314,0.24409150189144663,9.627991303392516
1.21230683337251,0.028238118214784724,0.2147845659958517,9.6742129942326
1.237078376482068,0.058813070800215216,0.2183145862934285,9.79263496620766
1.2324256090299208,0.018602972396993107,0.2213474744704669,9.610741481501503
1.2569714126298221,0.04821361054457517,0.21838449494076462,9.625284102901439
1.2525410330441173,0.009205261186278742,0.17671501574306644,9.66967587360476
1.2768645187661438,0.15318503818513393,0.2301379134612577,9.812296481152332
1.2726516434035202,0.028159326858116104,0.23175551742536055,9.665478010301957
1.2967630859021861,0.09428265072638385,0.20401318795235474,9.71137577449299
1.2927594457170068,0.037611189376983864,0.21504816266394647,9.7912544811215
1.316664927052451,0.0832238648568434,0.20899810743526293,9.766263251204137
1.312864006955962,0.09241692648964626,0.25665374527534746,9.653005623286974
1.3365699432804699,0.050766822181796095,0.22578233198794942,9.68616703771124
1.3329654715071746,0.11117210687251063,0.2438878958105918,9.805185458802825
1.3564779458649385,0.05868837272289635,0.22213496756375214,9.727258464590786
1.353064633196061,0.10570142155046483,0.27105925724460955,9.692381410084819
1.3763908939308305,0.04610179110064683,0.21065246022718295,9.693395292174962
1.373160153376839,0.1455071940960466,0.21243573885063427,9.83107438668542
1.3963027186286603,0.023046170103271982,0.23206703601760337,9.708996001389878
1.3932524144142056,0.030620345483197604,0.19663916743216375,9.609232158048956
1.4162192413065902,0.012639986641363022,0.20697078965962049,9.665642877430946
1.4133426548545485,0.021964423552466427,0.192640087387886,9.767630500813931
1.4361382596579992,0.048261780117807414,0.22575287494471222,9.741046664015812
1.4334304129737154,0.035298480702346965,0.21752554190723822,9.569411639012399
1.4560597169543177,0.07133789983976509,0.24527011736220017,9.691901200548806
1.4535157810220072,0.022028184231865033,0.18676291516158097,9.761871091166611
1.4759835349933572,0.09041166454364556,0.22303002365259653,9.667557988663354
1.4736002896789004,0.026218264624868648,0.21937190823148103,9.584878651206765
1.4959101172334295,0.077683884196204,0.24474966135016313,9.748159005878689
1.4936794890151497,0.024743519260643634,0.20441558654785472,9.784772603205983
1.5158379663138437,0.05488628654535028,0.23399461922201947,9.668710634125183
1.513758285234307,0.11676474431698247,0.25506865498760406,9.708360802720318
1.5357682529460561,0.07173268490604094,0.1968016359173358,9.766088896370823
1.5338349817332115,0.12482874010880876,0.22779171472092816,9.808366786136
1.5557005609607126,0.06992358772149011,0.22881142544722763,9.670000197486292
1.5539097083558389,0.09088713122236322,0.20915286434483174,9.720843499616606
1.5756347943334943,0.016375443082354963,0.19543227690934345,9.72741758698521
1.5739825510695806,0.08381565744833143,0.22744123966711913,9.781555816502207
1.5955708923223804,0.015477443087073587,0.27043575775567796,9.629157757337397
1.5940550314365431,0.049061127301525065,0.22463576630271503,9.656898637902872
1.6155099143264149,0.07402743223910856,0.21148694156968778,9.806217160017797
1.6141226033841485,0.003160423415467035,0.19198599586854612,9.706302790029538
1.6354485202307134,0.05648380925192593,0.2158089580843677,9.604755053563963
1.6341902584014634,0.0394250878368248,0.2221349774894907,9.644129008480508
1.655389748289268,0.060018188657633254,0.2077434114762834,9.791106347143787
1.6542562117883128,0.015925730429547747,0.2397320190322846,9.685029910305099
1.6753326078484292,0.04713161564920668,0.2350151100441834,9.625338400316794
1.6743205682645919,0.0006527439960072234,0.2184600628920763,9.663809437538207
1.6952770477729144,0.10646920874795153,0.21085699599709906,9.807351896286013
1.6943833216369026,0.1145107471669124,0.24850782998123472,9.715200441249772
1.715223465929887,0.06422062083538412,0.2039019754879935,9.616296864617839
1.7144457968684061,0.08029636607248729,0.22620741110340103,9.73551206969522
1.7351698853361528,0.0666320586192366,0.20918236315767774,9.77664052854402
1.734505069470917,0.10467966155146714,0.23887113425435655,9.735403545837777
1.755118708770636,0.058023066829268,0.2403893536969471,9.62296627791635
1.7545636481197076,0.10970812183720943,0.21783957824420289,9.745841463029658
1.7750687786439434,0.08072587316421129,0.23025727216184944,9.79842257810252
1.7746209432278743,0.10566280715376987,0.24928775872722886,9.680843224816721
1.7950201303370845,0.045000626423145035,0.21908917619968055,9.677383317479805
1.7946769656936872,0.0406130281210915,0.21626683848547826,9.695244704664422
1.8149727487879355,0.04985383255881879,0.2219842058614204,9.74969567642663
1.8147317041367816,0.005927679158498244,0.23593530834097115,9.595007972238303
1.8349276628769937,0.03461756777716894,0.2279694781987983,9.597054371551343
1.834786917968817,0.12204289862402362,0.20645095611731012,9.76514293872034
1.854881952494579,0.08471632548541307,0.2360261039147302,9.798372713453984
1.854837989033145,-0.00031936554387145406,0.23263874441728427,9.60864032955469
1.8748374738112707,0.07219748224132745,0.22282504255457666,9.694917106134978
1.8748893370602864,0.058809663638559766,0.20036788600003858,9.794312179925804
1.8947946791153238,0.08291976492396251,0.20712556852366332,9.708762427314623
1.894939603709571,0.042858179912752495,0.2541119157788918,9.61828715906888
1.9147529512734336,0.027591344661187022,0.21529669460950887,9.639445892640074
1.9149888114475428,0.10145493713924589,0.23987069226404675,9.838137502752888
1.9347122840429152,0.07405886181764704,0.2292868533558051,9.72467920252125
1.935036920826474,0.1006980123869221,0.2513508778455139,9.651554129282207
1.9546731089589071,0.0648806455263582,0.22401549710792804,9.695587004329065
1.9550852282198026,0.09993745469121727,0.20628181641010102,9.807711366269716
1.9746334511195827,0.046425281562124714,0.24240495621461694,9.712776916494702
1.975130804704484,0.015097009424016442,0.1957088799272687,9.60517815003518
1.9945957543229391,0.06686287661556642,0.18991574339471698,9.730053369647454
1.9951761225333142,0.04325666150208839,0.22541586646920722,9.749537820662436
2.014558869345687,0.10403280830678734,0.22707317119935902,9.71471416060311
2.0152205860468304,0.018719398701622626,0.1953988935675846,9.61080959826421
2.03452283870482,0.09297903554769552,0.2380421718217373,9.788768001180124
2.035264211492796,0.01879483239484643,0.1972627139795411,9.733734549916106
2.0544876044784623,0.04371582944669475,0.20193001712680736,9.661153182242325
2.0553072502602965,-0.027450677437728267,0.22403587482512063,9.64268053699481
2.0744544818582513,0.08056719448239084,0.19502133393975904,9.73655816074153
2.0753486420863427,0.023728961194880438,0.19900149391209657,9.778550388852297
2.094419988541643,0.06496106870086028,0.19607721831636565,9.612827863378557
2.0953898703387397,0.12509564741809207,0.22776866802800477,9.748957529482897
2.114387209881185,0.050227407964571875,0.2006414378431889,9.763898757347182
2.115430256318516,0.1278935202489187,0.2415961492250212,9.802033052360677
2.1343552163417083,0.05696376840912573,0.23738295430310782,9.578833097053566
2.1354698849381295,0.08816872623157078,0.22652593578317068,9.68947727724789
2.1543239565348022,0.05684859785770735,0.21314477612792287,9.78549396509958
2.1555088109532763,0.09581195848691756,0.24377237382137767,9.745212365714599
2.17429332848912,0.0520959791705416,0.2552620352301059,9.64877663497771
2.175547812865868,0.08636557548998541,0.22140286642784415,9.701649009968548
2.1942649319521585,0.11244164724041006,0.2583967158655437,9.831832956524849
2.195584075287142,0.07473533873688862,0.2457290865369147,9.759907399357944
2.2142347771442603,0.09467718958130858,0.26496290976954995,9.733000412961406
2.21562097524674,-0.040223834535830276,0.22353145774459146,9.655381675742436
2.234206283081366,0.08081700467101198,0.20119384112495342,9.778228855421712
2.23565712650114,0.015841035429276912,0.20475233751346442,9.682102841274782
2.254178474032937,0.05134007156006778,0.22834371063742856,9.631273135767243
2.2556926185344808,0.023007255723287576,0.22480911751291302,9.67941915603638
2.274151308810657,0.07559516798443265,0.2007973482787059,9.793556880355409
2.275727475799564,0.06734075758088065,0.22797705473604565,9.703433053310267
2.294124802534026,0.023906854078622166,0.22046185390001435,9.602123268573534
2.295763146757017,0.09142650013452018,0.2477292993551196,9.775962537743613
2.3141003806148093,0.05071434229448318,0.19945608262525721,9.738738885440773
2.315795526741483,0.07150159562704535,0.24249391170305232,9.686406391183587
2.3340740773776916,-0.004998049531016271,0.21182314910557673,9.594832784408625
2.3358284266236367,0.08749727033688591,0.2212483140181923,9.804738178002001
2.3540487074883534,0.10828597918920227,0.2380160315382607,9.812692895427354
2.3558609469775744,0.09274622486633627,0.24477705947939765,9.702967294657178
2.374024478892037,0.09030987474451532,0.23679999469077198,9.731775509433136
2.3758929095294694,0.1010126333701326,0.21135294721542044,9.795997023623334
2.394000793047019,0.12317500484802145,0.21660657348480203,9.796050310714246
2.395924340114957,-0.0005943190402592554,0.23167804943391515,9.58027523443678
2.4139776260923544,0.09832097739884839,0.2513132476517923,9.70427039972812
2.415955278115455,0.026784643923354334,0.23989034475388213,9.745645590320226
2.433955581425508,0.08445342455241446,0.2362885807928709,9.754755390932154
2.435986165661325,0.047448085316649215,0.23363344120511723,9.59142807609225
2.453933023386016,0.03421176406565771,0.2056437057264801,9.673167154192418
2.4560154576069566,0.03944744410063295,0.2016103288062401,9.79202991934565
2.47391259132824,0.02886690281938187,0.23628836767147038,9.681180023330995
2.4760447536755925,0.030918650367276968,0.26652056634388915,9.626920528529528
2.493890222434749,0.024467012723572792,0.21590353513052138,9.692428379793867
2.4960737042546106,0.0687940995317653,0.22899382838305898,9.808930977367716
2.5138695573007954,0.020383694269940873,0.2330595323451703,9.609940144558982
2.5161020851320113,0.10548197101855007,0.21114311103550099,9.687670083653014
2.5338498280340978,0.06600241344639854,0.23826304811233118,9.739823469306645
2.5361317356738433,0.11684697816436716,0.22210827228972727,9.812594451251268
2.5538299434098275,0.0902328283294901,0.246623657080924,9.670014473470358
2.5561578995144894,0.09444726070019167,0.21945959951607294,9.643362119101932
2.573810029990473,0.07337771049415745,0.25097326996387076,9.783362389294052
2.5761850449411305,0.0514292733584688,0.21481741767435886,9.770297005201202
2.5937910984502306,0.09445561276764074,0.2387148129670431,9.7442950067442
2.596211785935089,0.030031277579520697,0.26368010845312273,9.670939029212766
2.613772559986062,0.14456301966660523,0.22623562083134444,9.817265256525468
2.6162381420125826,0.03540708208800242,0.20501305599000658,9.739758417659953
2.6337543997610515,0.1248076120839533,0.23780531431317245,9.692380457767477
2.63626411252131,0.019432664180743634,0.21439017050259535,9.66331455713018
2.653737649800717,0.0199021193696966,0.202856578367995,9.778899127434903
2.656291493891294,0.053348864939801836,0.23860209230770907,9.760174252927138
2.673719141270058,0.01812627778579378,0.19895689296683383,9.597261735545857
2.6763161056353306,0.06318185661231435,0.2251916418356479,9.666298435334893
2.6936997159127025,0.03475970030726165,0.19479966551710035,9.764450126364471
2.696348698763971,0.09705655343996773,0.23210462097063356,9.756964574357387
2.7136989557728373,0.02383183640262656,0.23117211061733106,9.59586521605339
2.7163591012357835,0.07097708162397358,0.20185213606149052,9.714498982291422
2.7336729710373233,0.07127829504502908,0.1847976465625348,9.778333696417597
2.736385204331962,0.0679922807401766,0.21255598942864323,9.683427804464694
2.7536562608234756,0.10880402501866958,0.26288513453136325,9.656176846821092
2.7564092718484146,0.0758334752061298,0.2107065103975141,9.721919769871
2.773641695618651,0.12467563989327354,0.226174784801749,9.767815352562272
2.7764337435693855,0.08287144624436008,0.21407915353025186,9.683240726322364
2.793624918859531,0.11198099804362747,0.234530349368918,9.708115407350908
2.7964561082430124,0.07927007193574104,0.2483140374797591,9.727097596920123
2.8136102062864055,0.15024897199787654,0.22320035992121684,9.884368774367944
2.8164787038765113,0.022519976202451837,0.23091392683876033,9.638656371203174
2.83359577951942,0.020672680859043727,0.23443778909752264,9.620282684456782
2.836500971006127,0.046758256983843074,0.20483771777866092,9.719521727709129
2.853581688924877,0.041234263716494954,0.21471202614010387,9.753687176765531
2.8565229014936677,0.0597606399321923,0.25551086014411195,9.702397259217516
2.8735679344475757,0.0007424649988325224,0.20286818895334502,9.589687942630578
2.8765444967815665,0.05442186597020118,0.21668127393389944,9.749462047285087
2.8935552696454656,0.033945549471397406,0.21842253127906738,9.722117288758245
2.8965663625947564,0.06787244568135241,0.2278862448602363,9.633428820791732
2.913541224447573,-0.02212278193597655,0.2131279107336719,9.616290961625793
2.9165868771346806,0.07352289028822948,0.21028776677232214,9.78069257680344
2.933528458577398,0.0950641844502723,0.23371272605569152,9.794855849106268
2.9366075379452443,0.0677204241690993,0.22564873243553796,9.608014655268065
2.953515941305662,0.09557249042204485,0.22103012333578448,9.713045133005657
2.9566279246186125,0.08204283766624615,0.19142448348599522,9.758282331631065
2.9735036984013337,0.12497674637409885,0.25363515332477127,9.78345099285874
2.976648050038216,0.09790286420456899,0.24255476243555107,9.631923144251902
2.993491667215284,0.11052106883600447,0.2352577911340108,9.723414645091614
2.9966686545797048,0.01919908757660406,0.2206175082483559,9.758704508678422
3.0134818208846075,0.1047266811551081,0.2362627941493077,9.71961062596781
3.016687346445969,0.058757119797456875,0.2434092225587685,9.664314294993929
3.033468805248933,0.08087508653077201,0.23430533220710506,9.728174566306388
3.0367065218497244,0.10483082214328633,0.22847142391403666,9.805618995445592
3.0534576997591922,0.022684943882061936,0.19981814880067053,9.61400921236956
3.056725506562803,0.0717499946783495,0.2631480182008173,9.647870625671935
3.0734468561040695,0.019471963522459432,0.21391103778576148,9.681764251604983
3.076744225684291,0.06922563635202805,0.21682645653452043,9.748636974313635
3.093436276342639,0.01751166118788082,0.22452148524316504,9.64768932000191
3.0967626833725883,0.027594586775616086,0.2282389466055515,9.610765412793633
3.1134259555011004,0.021036233310864842,0.2230948080460581,9.737965631977769
3.1167808845792826,0.12217255340165242,0.21058223287685962,9.791693120347027
3.1334158887958488,0.08088147633203137,0.2223941820891882,9.651270228121758
3.1367988339036006,0.059847687605542654,0.20332881037460956,9.655431183563342
3.1534060718104238,0.06636868942204181,0.2252007275617491,9.79065934494274
3.156816535570225,0.05391634623878401,0.226233301549178,9.741439907256433
3.1733965005473053,0.10054957943418735,0.24176837511614982,9.683184398608097
3.176833993261496,0.07840865360448687,0.2267886779032011,9.669559052673764
3.1933871718467945,0.09758229816877909,0.21521347234148286,9.821644648087569
3.1968512090867667,0.07269941457753454,0.21525403615434432,9.769085750951854
3.213378086236718,0.10445445712746589,0.24691271115369778,9.721222516685962
3.2168681734344964,0.053222426968812714,0.20013098425513187,9.722964762565848
3.233369314345461,-0.0026013231673914176,0.2078606218904947,9.745554359200822
3.236886164158786,0.06960280817740643,0.227734084304295,9.757597372604025
3.25336117522661,0.006156988956337606,0.2172684800939785,9.594361047125705
3.256901468660332,0.0683544434806956,0.22187351146474713,9.728169579926613
3.273352174833156,0.03921686230327939,0.19845417818438324,9.777119230454185
3.2769177855219485,0.09508632231440105,0.20792100262972202,9.716557256833754
3.2933439910349387,0.020469927016532056,0.2230353497873953,9.621083850287173
3.2969338620148774,0.061088685364858855,0.23095305795417598,9.71640927677575
3.3133360369966227,0.008585911815085532,0.21269592470913806,9.756145101616672
3.3169497070196305,0.04244974291676253,0.2440464091284627,9.630622018620143
3.333328326226543,0.03659385952394349,0.19381675896963574,9.647370883298727
3.336965263541778,0.007795825337242238,0.2218402614411277,9.692371452441828
3.353321318466024,0.1355864494813287,0.23453626018703577,9.860806794270397
3.3569823345182113,0.07272080184737124,0.24536939210670708,9.674625782909851
3.373313852790287,0.1272787805385992,0.22882633404359057,9.689845301667372
3.376996155943026,0.082353268717725,0.21993870867341705,9.773482835506648
3.3933061896019434,0.12313464497608724,0.2114768269539512,9.824441159692345
3.3970111770913816,0.060859023610083746,0.20938181311522105,9.650312703937107
3.413299280818815,0.051863248855414525,0.22029255037223433,9.671013437424575
3.4170259937657335,0.10170633703626318,0.24592060747254815,9.782190804685854
3.433292573761174,0.06900306863861978,0.19142785293534334,9.763094745317595
3.437040603673714,0.1275413734884468,0.24236604236845016,9.695647681070579
3.4532860855332093,0.007776700846527083,0.23194783208347441,9.626300995909098
3.4570549598662454,0.04758751247773495,0.191854764606154,9.778089306896828
3.473280971461564,0.014220816946189731,0.22978985876218416,9.739525335084402
3.4770701805683597,0.07012109887643861,0.2250286653973217,9.63145608193023
3.493273923114085,0.023773889421052973,0.2061787876125862,9.644015773823128
3.4970835047355435,0.05961893991764348,0.2025577505237494,9.81253676677779
3.513267479141053,0.028790991588793984,0.23135140719932032,9.753053449085277
3.5170973566463073,0.05688121565332161,0.2100258929489329,9.623382487215672
3.533261720391127,0.0879283288166082,0.2197886420318905,9.755541064601104
3.537111038602631,0.055700579601876576,0.19128002416508663,9.7667304167903
3.5532561321730367,0.0996892597237957,0.2342086864866462,9.714656318290793
3.557124549574921,0.05744568056741634,0.2173307785361918,9.581743016260098
3.573250711365964,0.10386225967835198,0.20925875450562703,9.754954372424724
3.577137911772734,0.1018798644912011,0.22747561898647956,9.791659685699296
3.593246119453149,0.0913794316224245,0.23187756809094093,9.739598481639234
3.5971509781911264,0.08649420446318266,0.2293086294681979,9.678704214119142
3.6132404599304175,0.05546248067349078,0.21143487771713343,9.737469635425796
3.6171639893115795,0.12810252113035564,0.21192746053454603,9.816387386324685
3.6332355577921547,-0.011074049304548552,0.21841031894797683,9.603795305560661
3.6371768111892604,0.05681887475734582,0.24402085688362152,9.633611958335107
3.6532308279845993,-0.003541282905438488,0.22892119587115067,9.74066924660179
3.6571894682181925,0.06395233255715792,0.22831210362864968,9.769325882932982
3.67322625520104,0.01426182291209333,0.23795759274506162,9.642378092872088
3.677201982135148,0.05219523420719713,0.23734286275831784,9.621335551715182
3.6932217874505073,0.017926027251616836,0.21704719111643836,9.742523099418872
3.6972146219980937,0.045006390479262026,0.21188063020805817,9.7291098468043
3.7132187601425004,0.05747469109605323,0.22248381282069693,9.624159029337612
3.717226163872645,0.029263318116523353,0.21109176373004124,9.622634695296954
3.7332137680615953,0.07478951475923938,0.20087663982998086,9.783078039639923
3.7372382548809453,-0.0140286973335852,0.19558241709884472,9.694206090605308
3.7532098218741776,0.10707558671046409,0.2212281130518838,9.692941067538621
3.7572501121307083,0.09329649660573633,0.21920153246275256,9.719115548067975
3.7732060571288706,0.11493658536523159,0.18409072491342038,9.825089084947647
3.7772618075511057,0.08147646262289004,0.2391857842260043,9.766553205577088
3.7932024393868824,0.08002430287206479,0.24472967099235995,9.630898314373232
3.797273378163784,0.0774233692012992,0.2164498222033278,9.748768929716029
3.813198884645188,0.09356106163087986,0.2006842552001519,9.783812435093203
3.8172856425410635,0.09702364146196549,0.22705770087994517,9.767694594684116
3.8331969567633193,0.001023674219669746,0.22122110659043961,9.598074928696768
3.8372955873952836,0.10039220180296098,0.22219308338614274,9.750549670076538
3.853192846307398,0.03343178299525096,0.21776211893574762,9.75249118806656
3.857306765613511,0.10699652016095716,0.23247345281408746,9.741847887611693
3.8731898191073038,0.05024131910266732,0.23488078574177257,9.63450250792164
3.8773177034474564,0.033333086747261834,0.20923795623907773,9.714680710488254
3.893186972640422,0.029867962868074128,0.19922868457929643,9.759485121658805
3.897328481795763,0.029672788189712865,0.2086202019332134,9.588216876326001
3.9131842718215224,0.037036750002175975,0.21949104626144705,9.61136375129483
3.9173391327582996,0.031833935759055035,0.20024753679263735,9.71377631135136
3.9331816472296506,0.11856258957101937,0.23794325729458785,9.814841232939214
3.9373504321680186,0.14795696524933882,0.21960961578188998,9.709157726342694
3.9531810553583293,0.12011681448377827,0.23513029954656675,9.719812611269276
3.9573598628133673,0.08162456328609027,0.21039737533186476,9.767961349333147
3.9731772061002166,0.079765993231793,0.22089942715183908,9.773103507948758
3.9773699782797958,0.09082973761389582,0.22633815329460522,9.616703220974763
3.993175108568768,0.04843641267710229,0.2090451817404101,9.661171113726981
3.9973800159288957,0.11185565916611666,0.2171596551105191,9.825075212697842
4.013173151115709,0.08634707845073174,0.2338076114995405,9.73754048446909
4.017389908224598,0.11057739738582087,0.22537859356909778,9.703509553401979
4.033171342115685,0.06724423022659325,0.22974589431492032,9.67044281011591
4.037399641317747,0.12648444626752375,0.2451769378324234,9.846509226390967
4.0531697643958,0.03523799829832409,0.21525988446913988,9.694825369324404
4.0574105094930335,0.030324256202737904,0.21863669553710252,9.593346699829695
4.073168680336896,0.023660433299130288,0.23301955936393,9.721376909487352
4.077418761284554,0.06391821313457549,0.20420819011104527,9.767567526650112
4.093166698197994,0.0426758637726958,0.25432532698882265,9.717212395828954
4.097428123354965,0.03784938492647201,0.22145596586027572,9.584499138761675
4.113165427420155,0.0610499887778056,0.22446574146904041,9.696907696640269
4.11743732910473,0.029968562861510815,0.1996891413762138,9.765049897502912
4.133164302429998,0.08725527663973402,0.24093669686467745,9.696322494078586
4.1374463858543935,0.012580780071397112,0.23695239852072167,9.611261331226382
4.153163340489106,0.07073329404793745,0.2396441871848847,9.767059705384586
4.1574552301081065,0.036132572151471726,0.19264607252318677,9.736990095078975
4.173163033818172,0.031990700360794475,0.23626844551664694,9.643653336670942
4.17746563524785,0.1247054576933312,0.2502826205421064,9.702751984567024
4.1931614676516045,0.07328152159794475,0.22971833065913963,9.739030834526364
4.197473018534473,0.13282036686962775,0.22071202406785692,9.813205434783102
4.213160920795615,0.06417873736373307,0.2398146992975061,9.657431736086883
4.217481540468234,0.12597962784051694,0.22122775911204312,9.719335974108592
4.233160457901599,0.016867315868168264,0.2003047540603179,9.764195709949988
4.237489951929316,0.088170751876126,0.21094127614871977,9.77770098119026
4.253160119369304,0.03694657245225326,0.23372722060870232,9.663952445469715
4.25749822705175,0.025844543457082852,0.2388877170176605,9.679467912957334
4.273159936936996,0.08479749973442209,0.2247140619828299,9.80610143309978
4.277506289024626,0.022393026037864423,0.1956023663130651,9.658769394396396
4.293160435829617,0.04014242786190708,0.25208468187353583,9.621895854365347
4.297515356761287,0.009182929460504469,0.20824436105080454,9.666803955814432
4.313159475081761,0.05808545501014521,0.22926258176004743,9.786074176931917
4.317522643097823,0.029998326333047755,0.21672925235607626,9.679752291497946
4.333159728561818,0.056098529328403875,0.2338046998779035,9.5992451814951
4.337530405601173,-0.02180224071724313,0.2120776561612804,9.681078490836816
4.353160010601538,0.14122345890826773,0.21590308079966897,9.807361238863493
4.357538082197908,0.11783827554043341,0.23288738402329923,9.735947232004383
4.373160396787974,0.03893069653484877,0.2237357514288362,9.633636881220324
4.377545646019577,0.09678003055273865,0.21382353658475053,9.780682002507966
4.3931609023418545,0.06970431626531734,0.196214150478859,9.750303644329811
4.397553081438852,0.09299170283912213,0.23821765037692716,9.700756538378139
4.413162577204294,0.06275965353196365,0.23390262436919176,9.665636938246985
4.41756125601894,0.11404564944370449,0.21293959323774292,9.784184723034727
4.433162225009913,0.06729013900630608,0.2316267899203564,9.778805156237906
4.437567684471185,0.09616137275224787,0.24203891596840973,9.735334790992725
4.4531630549499095,0.03313474004324491,0.23550134484960417,9.659146555166437
4.4575747916541415,0.08871672189689571,0.25380845383308676,9.806939146198024
4.47316401337401,0.09641356626196435,0.21693026383246355,9.800278179105632
4.4775817860021085,0.021214642531401352,0.2070057934856758,9.579380255435208
4.493165079707477,0.05466160900728939,0.20918186382666548,9.654666384855622
4.49758868112143,0.006195633112045838,0.18418640015904378,9.71485302454337
4.513166217237474,0.08559979198617243,0.24024631540265168,9.830225404833621
4.517595714572758,0.011657025771698614,0.19905364362141273,9.610836350890377
4.533169168103173,0.08089004547644839,0.18608384926837163,9.696938265447766
4.537602084574052,0.043859339763488006,0.20141535927366092,9.778255850527726
4.553169047052314,0.0972314148534163,0.21880718537209004,9.698282662136975
4.557608547066548,0.040171006422876666,0.22964853576853123,9.59906608465373
4.5731705849704865,0.035314965945606396,0.21799341836109615,9.675083253803264
4.577614968106441,0.08605598910370048,0.20515223334627153,9.826623037573555
4.59317222501735,0.027858106313479257,0.2231824546692036,9.675739337031686
4.597621284201355,0.12757281631929915,0.25350572312596614,9.695506303549653
4.613173964686351,0.036744842927263176,0.20346336428112863,9.714253528562779
4.617627515535836,0.11155617154903888,0.20569601907367552,9.8152946234146
4.633175738585463,0.08002486519157993,0.2541877881236366,9.728171646483403
4.637634466603386,0.09274403690758591,0.23083344235266484,9.681179187706856
4.653179466131171,0.07492998425441033,0.2262171150687032,9.734258209086699
4.6576400835020175,0.06725666804384382,0.19818461017605568,9.758449187622952
4.673180107843937,0.08639522202635735,0.25552822478208154,9.72419770244351
4.677645240889039,0.012797094629369702,0.22558173129322345,9.61528406582818
4.69318226130117,0.1168371594865419,0.24198490533782108,9.771289450934018
4.697651011156438,0.02395129002026305,0.19306762059918153,9.744949001415474
4.713184560749109,0.12557568141965772,0.2335619797157321,9.720974937329746
4.717656665523143,-0.025855689223770482,0.23003194550703812,9.598867565140981
4.733186961344079,0.05672796626730266,0.1977029048297616,9.751105961277961
4.73766223996087,0.008997130109795632,0.20218173498779088,9.738703889407264
4.753189381496534,0.08496579944356418,0.22103279878515644,9.648621436054563
4.757668584624965,0.0108864844368374,0.2431765281753222,9.670817303111601
4.773193352911719,0.03138709733646929,0.18767974851769878,9.764010051965762
4.777672582544571,0.1438105798120461,0.24581800289979863,9.76426651678439
4.793195167488545,0.06282315970621791,0.20885267251840023,9.634450277563642
4.797677889374009,0.10222171684221479,0.20602116084534328,9.714568718443092
4.813197994410578,0.03139672922104231,0.223604250887353,9.768252536049108
4.817682990096476,0.11804209625247888,0.2255634353349089,9.756364381698036
4.833200969444533,0.06595926750497827,0.25853055187074403,9.681007101149817
4.837687959898311,0.06481675720749101,0.19261693742045904,9.703128165405374
4.853204069954019,0.10041411054114519,0.2155303555578973,9.829751978417157
4.857692800055454,0.07552272016475675,0.22594755746723333,9.684790707700765
4.8732073603935,0.10691933152243158,0.232322908369195,9.669741795130353
4.877699023091702,0.010336566815448344,0.22318426842902697,9.629194463486671
4.8932111601702,0.09914974323077501,0.2074469489630312,9.774430732114656
4.897702639298789,0.04403473973734149,0.23333128464161007,9.602166554225999
4.913213951825394,0.05673536403061921,0.20817897136284608,9.607295945116052
4.917706746092267,0.03625593941852316,0.1967030415643511,9.724059779432432
4.933217552890066,0.0851009269974439,0.19850874395016807,9.791751921337442
4.9377111241019405,0.028978065762970698,0.21471825199896402,9.678206788053007
4.953221236440486,0.04176563274663698,0.20008237743257293,9.605612279009794
4.9577153844307995,0.08867637042343023,0.22328459697885608,9.767032045207737
4.973225063118446,0.032247117865792256,0.19894232489534558,9.745234389639117
4.977719442108477,0.07664454402394673,0.24870739185115345,9.676975301961846
4.993229572091337,-0.001377832534715137,0.2000759812006354,9.593729966050077
4.997725019127727,0.09575210555213076,0.2345543970454898,9.80832251127777
5.013233971972979,0.09733598018427939,0.22435077633723954,9.790067561585559
5.017728572664061,0.08010438981092137,0.23647208762883354,9.674462108232166
5.0332365667543115,0.06803772207456185,0.2229898255682405,9.702083977271052
5.037731798630032,0.10187176714280909,0.2092030074548092,9.775721178849144
5.053240899579767,0.1069683323304419,0.21462304502587456,9.784610973262126
5.05773548775675,0.008515042331966233,0.23061555181122387,9.586486095362334
5.073245249725776,0.07154971669767436,0.22506714250549695,9.693111977410107
5.0777390982718416,0.03513651451032063,0.21031708917442177,9.770911464632164
5.09324970828636,0.09843778998678074,0.22218385122875542,9.731737945122324
5.0977425510482455,0.0436561879868688,0.25274943073313083,9.62449469922344
5.113254765766736,0.08602885922158561,0.2144702309859732,9.730789176087491
5.117747865903392,0.030835715895016328,0.20297265775625012,9.799068534373273
5.133259061353306,0.035608881487389714,0.19895839647878738,9.690819379275919
5.1377493764708495,0.03709337586331396,0.2270289905575221,9.58781864509337
5.1532635632318105,0.027810339807151484,0.21551916830499204,9.676181760624063
5.157752628010345,0.07626878965508366,0.22471218344324712,9.781671970119698
5.1732683953725,0.03911469504965624,0.20473331399558292,9.627706967624908
5.1777557465780735,0.09807222437350466,0.21748293790897552,9.700552074548044
5.1932733362852295,0.07359158686724968,0.19584618963611372,9.760668952647919
5.197758767208136,0.11881970388567152,0.22850502817350768,9.76748332065929
5.213278360429787,0.08131082588141533,0.2363109633918903,9.677380753125751
5.217761749392882,0.0637892015820473,0.2374849954647046,9.639091297554781
5.233284076143528,0.05772621155770399,0.20299437518877167,9.8095853282125
5.237765303306944,0.06248054556471427,0.2455181258704663,9.821022478801225
5.253289426537827,0.09018543102759431,0.2270623889969707,9.726438659410489
5.257766826095972,0.03521524333587088,0.2266550360961052,9.65541054742869
5.273294449820387,0.12280073175744365,0.20835946367911026,9.827905134616184
5.277769481983957,0.05770980821120507,0.25586221232769485,9.751128318487922
5.293299906272404,0.10034575040080017,0.24530478713067994,9.683591163370007
5.2977719614840035,0.03662594136183522,0.2136062587020657,9.65764421873795
5.313305494936536,0.057479841703336046,0.2271847524161981,9.769787232037425
5.317774330484717,0.08303310128126588,0.23955812792213216,9.771085322379244
5.333311160985145,-0.012496333573427889,0.18720683513056102,9.614875741086259
5.33777684064799,0.04170202984872051,0.23558133607538503,9.724323136660818
5.353318742153634,0.052886531481554304,0.20127201077038656,9.77215748434924
5.357779584489453,0.10555181322738315,0.20452473430758566,9.740056031373014
5.3733233308120925,0.019832662777540182,0.22227994991702707,9.586008372274195
5.377780535024641,0.07295857850571424,0.2161407590079483,9.740631109116112
5.3933291587695855,0.034568130208132465,0.2159899177561322,9.778191331767353
5.397782467659245,0.05574382699216155,0.20341976040178988,9.66820024727412
5.413335316229461,0.09329276719612906,0.25808730342651387,9.708426293309751
5.417784253991807,0.11657777855879012,0.2149208927939932,9.749827213914505
5.433341596083772,0.12463989512763769,0.2209115078587039,9.810967119352547
5.4377859300608,0.11170386534778239,0.21988211957373183,9.683566507361496
5.453347960863481,0.09588550595950521,0.24013647125721302,9.662009811284076
5.4577877295484925,0.06546447844601362,0.23124362813926033,9.7664573981187
5.473356298173688,0.1282388192294098,0.2275651700151056,9.828392107376825
5.477789463883991,0.017921378781622792,0.22386969245087382,9.644564053044174
5.493361039454021,0.05376286731000452,0.21505028162486395,9.63902503768312
5.497790276228676,0.040995543964357804,0.2123228484395292,9.798157870982294
5.513367855588309,0.06873222295222473,0.21674984677547882,9.78213134707353
5.51779146120769,0.08257770342076774,0.22870815412784287,9.70733089761336
5.533374711895187,0.013635959957663358,0.20626409967077766,9.59747002862793
5.537792598316814,0.05799261029960503,0.21887671153686866,9.780703727444243
5.553382332662249,0.032804032855697315,0.20620374715207723,9.681982065612434
5.557793454097787,0.055249226596944444,0.2238531475502897,9.615383399053
5.573388776522161,0.0005351984746663961,0.2246574716872997,9.65098257478472
5.577795200702473,0.07715124972889165,0.20413339481944226,9.781909317361594
5.593397875892668,0.00589428769778871,0.21655484704434586,9.661097836051445
5.597796183089679,0.05302181293933558,0.24691463986361942,9.631209169778117
5.613403377976693,0.07675866680176047,0.22565377165510503,9.729280135986285
5.617795675031649,0.07833655371521107,0.20172396424868436,9.78137556486416
5.633410838759684,0.10458187940886388,0.2302226493374887,9.766934344979838
5.637796186992024,0.05404805524333359,0.21803959538478848,9.610424549504314
5.653418375371016,0.0970527512314098,0.23113150242909608,9.751205086670028
5.657796627411205,0.0571184742618341,0.23894402703931608,9.800628472324416
5.6734259381552405,0.09457001681112928,0.21325034631253167,9.721724399336058
5.677797257011609,0.08071655667750265,0.2340341624206865,9.693449926134866
5.693438355007321,0.07445904397405927,0.20714023410023105,9.710912270105146
5.697797993969672,0.12085490031739286,0.23579871372295735,9.792378393289892
5.713443159903507,0.020063999298064003,0.23472770338602583,9.625098633581038
5.717796489079875,0.05711497444841803,0.22498069717791574,9.63352761136126
5.733450272295973,0.01342470013270717,0.20521200397626993,9.736986591886152
5.737796516386411,0.07434992824034552,0.20760157912016208,9.75965387046198
5.753458396437038,0.024701729270233796,0.21919678150697847,9.616173210360374
5.757796303964449,0.08086612172336521,0.19828853217631737,9.641396928841989
5.773466701138935,0.0637211171244996,0.21954993478687002,9.793633450179279
5.777795923887336,0.07471550569136105,0.19662991754723777,9.733931260989708
5.793475182457283,0.08006922617535531,0.226235634138488,9.632492494141854
5.797795314285613,0.021604066839804592,0.20673037348325787,9.641051041005944
5.813484398404083,0.10923760838780554,0.20889512999887688,9.82315216379159
5.817795661634891,0.08675915413425124,0.23441044437838868,9.7609900049054
5.833492081790239,0.09002067616194012,0.224344662218756,9.66539292183326
5.837794300759594,0.06599584458102217,0.23276367253630953,9.685925372484537
5.853501027663396,0.10319363228538513,0.19922594051208026,9.80150687678316
5.857793363798666,0.07615188218709935,0.25924041887100535,9.740157068984352
5.873510015638852,0.09907123015329182,0.2235729064444676,9.6390779002344
5.877792327385943,0.08905785378524306,0.22872370960977206,9.691840489121784
5.893519123128656,0.025863588708775503,0.20756431208201445,9.80164200098352
5.8977911592766965,0.09675014970278616,0.2473875995241767,9.733686871589466
5.913528376898229,0.007247063160982987,0.2017408778745924,9.640959308074581
5.917789806874482,0.07852763304266533,0.2542426904096237,9.755054764636665
5.933538208973045,0.04911036728436365,0.20162421171212594,9.777297070420913
5.937788729360541,0.04658068800882675,0.2529506701874811,9.663674278444898
5.953547059671164,-0.0063074046697402155,0.21598037953994642,9.602865586531125
5.957787025684211,0.04101665779788519,0.2127555908321522,9.734824741486031
5.973556730327188,0.054743103313074255,0.2335993396486667,9.799762732165895
5.977785318189067,0.053196718135718475,0.2291578072413563,9.643360374421919
5.993566506209297,0.12356329320442323,0.2520923708667683,9.687242991689025
5.997783483944091,0.08857985881415628,0.19469758208018992,9.748797548428985
6.013576418801456,0.12805547595056796,0.21767322219373383,9.8056284451155
6.017781504513444,0.08661227490747513,0.23547467447479747,9.633232457711072
6.0335864890463755,0.10662039778206243,0.24068149351915896,9.680230330296556
6.037779342407814,0.059840011173292046,0.22076901683554775,9.780777755191664
6.053597973883714,0.06822126989400737,0.22907069683157472,9.758876461799064
6.057777916695593,0.0766244938037487,0.2760834191072626,9.69631410881508
6.07360669681478,0.047110975407101525,0.24301532864786,9.674771596379726
6.077774979976109,0.10876114780218309,0.20425823657000283,9.839976743236573
6.093617253872027,0.04032037085521797,0.22208252877858,9.757133791015752
6.097772420655247,0.10773442131973862,0.24356049953171838,9.698819885867758
6.113627869642379,0.004013107606157475,0.21513457509667627,9.662227956772828
6.117769755132293,0.08798930548782152,0.2064764338231635,9.777980902404163
6.133638601598713,0.010463781435405474,0.2054171816651529,9.676268389603775
6.137766980111303,0.05777376530557236,0.23736752635992908,9.583224117812522
6.153649404817238,0.03589616025205341,0.19355716679684196,9.644705740203275
6.157764409825077,0.053268193623370826,0.18114361995843192,9.758873002732628
6.173661614406865,0.03657556392374795,0.23163176010812306,9.712508173194802
6.177760598131402,0.06635126958907824,0.19499172994835623,9.599301239861193
6.193671935620507,0.07119673178585441,0.23946229288175916,9.76106771655003
6.197757452673864,0.05777548215072547,0.1885499501641973,9.780409502076244
6.213683228858366,0.08945448717730949,0.24160433777671358,9.711952035235788
6.217754070338666,0.036945746473480874,0.23632377008573893,9.590821726631477
6.233694704196944,0.07580989851554133,0.20528468257912744,9.748347561820504
6.237750523713393,0.09792774519513693,0.24442504681690458,9.799358398820221
6.253706333214888,0.09124153229535048,0.25014538035001105,9.666778905450757
6.257746836854764,0.0855292304221367,0.2478903438796403,9.715446384729612
6.2737180670756905,0.06038290424927286,0.23794851816669443,9.744587039996325
6.277743290727716,0.14810494832341273,0.22889327699714473,9.832861436923615
6.293730551175698,0.008125578940893965,0.23802398461069013,9.597935296555171
6.297738697398942,0.062141430646340076,0.22624874089915392,9.669694313784762
6.3137423875311525,0.006104619881604211,0.22967915142990786,9.761028761010147
6.317734562489446,0.10789452891832679,0.2124118077720984,9.769540250010706
6.333754651457362,0.03162104121405934,0.23662380688041582,9.61555556280225
6.337730209945009,0.036509181329330086,0.21583977293565376,9.635554875673995
6.35376710144421,0.02444204324095664,0.20211432728096823,9.766839162226487
6.357725681556669,0.030837516171616383,0.24762697973683934,9.704822422075244
6.373779722243325,0.03085197612643827,0.23076279937841235,9.649769952207777
6.377720987429654,0.012782299172268924,0.23408362464660765,9.679185202801547
6.393792494036253,0.04028367042811122,0.21754564364624368,9.82398339483047
6.3977167080075255,0.012254580130746383,0.20224408881223,9.662155366752543
6.413805555616653,0.09936236502740112,0.2506198470872495,9.663963971761437
6.417711014740738,0.07969312015261085,0.23295506277604575,9.748528784930436
6.433818668766157,0.10388313794720178,0.228177530774663,9.81012113001773
6.437705801023232,0.09748048932405481,0.2237307758203241,9.750855340720484
6.453831983803629,0.05916225440080199,0.20275667612916756,9.647443224884588
6.457700403892435,0.08345221841132858,0.21676807265816112,9.785124113502505
6.473845477620536,0.04621292730689035,0.22777091721928677,9.802146744509487
6.477694830886101,0.11540015177564729,0.23984955435750382,9.719186332620291
6.493859142970906,0.005754725072694333,0.24753302529707102,9.612937755227474
6.497689096616496,0.10639145614149938,0.24468041332245113,9.778983676229451
6.513872935888266,0.048587416039780895,0.21340123713222248,9.782158599350797
6.517683482507533,0.023475605338411316,0.2088654322209909,9.637692427487538
6.533887500661956,0.04067664426776855,0.23204832762918803,9.613423807446361
6.537676788788552,0.02555740037220982,0.1942237561937837,9.73715133596733
6.553901451032401,0.06920200672002313,0.2509034093927707,9.741487020884986
6.557670529926716,0.043971017488793944,0.2314498051631671,9.613691413434568
6.573915851727938,0.03413604282609467,0.2457954256308198,9.663810987186741
6.577664027909942,0.024138342707331645,0.18733886375904119,9.735391560145242
6.593930463102944,0.11427090242273441,0.2158840325170399,9.758643189941283
6.597657328299179,0.03095451592790164,0.2299431552501813,9.613516981336844
6.613945258947189,0.09060733754667814,0.21907851791217528,9.696913279436759
6.617650479829327,0.08847263834267252,0.18495235203406196,9.79679083929898
6.633959800083612,0.0844733071534782,0.21735756523292385,9.720969981945268
6.637643036456257,0.11345273883241139,0.2531427388291805,9.698368083387608
6.653975674840672,0.0647635651650966,0.2162690133634672,9.699866282463887
6.657635853738572,0.10132104590674992,0.23645289375615025,9.849670318452707
6.673991072190479,0.06377097333550465,0.2086574726976069,9.692404346333102
6.677628336191781,0.11348659349860321,0.2415771071042878,9.69647294263927
6.694006713129985,0.022895955291570274,0.19853478239754213,9.698300422079488
6.697620591130427,0.06621650499464818,0.22538269895730645,9.788834088479168
6.714022578152482,0.05126857565454149,0.2284652539425267,9.677918763910577
6.717612620122396,0.01894299038389461,0.23802917059159878,9.611580578613689
6.734038677886546,0.06886906157498048,0.2320385882783778,9.763435329724363
6.737604374797318,0.03685238653187457,0.21553958600148324,9.751611544177925
6.754054325719663,0.08519662859215027,0.2318540245391091,9.701188423804572
6.757596139588233,-0.008002046756185394,0.20837036864117547,9.587110630233443
6.774071416294286,0.07751350967791913,0.2051981132847603,9.803569095716725
6.777587465899406,0.024988237805838136,0.20804252731226702,9.72042232361248
6.794088184759813,0.06416490793727017,0.1957271959534298,9.633440997178825
6.797578598634612,0.021088126056134943,0.19515509551882976,9.574438147469387
6.8141051725114306,0.06695428597677923,0.18980145086985675,9.784577011232551
6.817569503578308,0.11985959714803401,0.22041281089599082,9.798533641671707
6.834122392929452,0.06462207348728594,0.22712695936355123,9.629856242383179
6.837560171926082,0.11145759963901786,0.233774106232713,9.714168945663964
6.854139853668358,0.05906164831449298,0.20170937072306747,9.760602059401553
6.857550602707202,0.12207568898898777,0.20816793493337546,9.799755676828154
6.874158690207802,0.03268777429308189,0.23770414780747007,9.629209190366623
6.877540938011732,0.1029348431335665,0.2096578312725753,9.723477847415323
6.89417542357709,0.07261039425314057,0.2379018936879879,9.764187152231502
6.89753078348206,0.0981173489549124,0.2421659537577953,9.722237334344442
6.914193639364284,0.07736432850152809,0.24680921943548037,9.646640012467735
6.9175204635811705,0.04307712812389069,0.22144618908743247,9.71425299042989
6.934212089042708,0.1337697781695937,0.21961491487295706,9.78709640000934
6.937509896869561,0.00043634525557474923,0.19097271586804979,9.673380029008031
6.954230790006336,0.07495957023655463,0.24625220948354995,9.6133462169682
6.957499078303614,-0.0006116889196750121,0.2195307013854873,9.677363084260852
6.97424973691578,0.0605647300598288,0.21210563698463536,9.802704023678837
6.9774880515346585,0.006039227114032557,0.21022686214145236,9.67417536378799
6.994269624857053,0.08796540846176884,0.23900896668453592,9.655384707433909
6.9974765140258235,0.06019722569631966,0.23616167247145745,9.774097679173837
7.014288569289582,0.06314083718386841,0.19663963063185777,9.760694658387518
7.0174649218147485,0.1178459494057994,0.2425332281926267,9.694709405086297
7.03430833636359,0.03380357428936522,0.2176417949261671,9.618419624979053
7.037453014578503,0.10620492656733208,0.2203235579828048,9.807094447284076
7.054328395555058,0.052758642000724575,0.17379567901123424,9.71388563190801
7.057440821300797,0.11423587136846422,0.25264438509710707,9.726334877305172
7.074348736506335,0.06475134143997814,0.2458460000912868,9.694786560879223
7.077428355286407,0.07927651557094435,0.21578674300431397,9.796499124336785
7.094369317864538,0.09640719439638959,0.2157953242618022,9.777522013409335
7.09741591054622,0.08617035239556674,0.24074408121851273,9.691686309943503
7.1143919149194685,0.06561645284065543,0.21997576493384946,9.688759838789352
7.117402388948287,0.01305164040696628,0.1978664611136434,9.747477037973391
7.134411680943265,0.07416902434824016,0.24318885132593226,9.75058593553044
7.137388964146158,0.022552211461494734,0.2365772786402045,9.614120724333658
7.154433237830696,0.05440814774582675,0.23219044736620725,9.700044956961936
7.15737525889429,0.02522276867224753,0.21481112579779274,9.785110995496366
7.174455108873077,0.07991459042088778,0.22777835713588357,9.712681939337353
7.177361239368852,-0.0020771189464200315,0.24840931225306315,9.609512287693917
7.194477289061024,0.06443816281598523,0.21162101596039742,9.686488804073951
7.197346925640156,0.05367017506886595,0.18651859736956092,9.78629760398815
7.214499710328727,0.05843266457070526,0.20388169627398334,9.6723707826782
7.217333248042386,0.045768744964567815,0.23733528169268703,9.638971785218223
7.234523810760923,0.003892326232353093,0.18833197980569336,9.680172310018962
7.237316823595615,0.13081948724511996,0.23180080672397022,9.82846426740231
7.254546167566818,0.10778439676634159,0.20580901364107698,9.663975773468371
7.2573015570406465,0.09007852426189435,0.23128014580031217,9.682023667701095
7.274569690291888,0.08018160864398512,0.2247453843203351,9.760285604161165
7.27728583844337,0.11286020763168417,0.2002207184209199,9.809084540636826
7.2945936100114075,0.0962380438552163,0.2560773254422948,9.677001168649292
7.297269736255618,0.04036110258753016,0.22558879306778243,9.655396424012853
7.314617911365171,0.09931549657976615,0.2507494259886706,9.766484558115545
7.317253248450393,0.05155714041613006,0.20058523189396574,9.7256431447878
7.334642609894942,0.06882890803364075,0.24450714440976687,9.704106241414609
7.337236326683985,0.04870772969605087,0.21163391862140954,9.647240683992687
7.35466816096684,0.13239134078944503,0.19676490279232836,9.816385204008986
7.35721938993375,0.010652902803145663,0.22270599314402886,9.738401053670275
7.37469296375693,0.08183384168656299,0.2274058844036185,9.621661809231604
7.3772016154501605,0.05837267426006197,0.2307410078236341,9.60149532022427
7.394718852914096,0.01255978813336453,0.20522517069167712,9.735765995992056
7.397183551504679,0.03935873122452543,0.23941823433608247,9.758850602678816
7.414745124025667,0.01957677593425411,0.228447073974628,9.609427394653446
7.41716508034043,0.09288761112899468,0.2015231825025719,9.744933435814588
7.434771821149419,0.05566968883466683,0.17766949628304188,9.782619493115776
7.437146151627976,0.03082606139520975,0.22894831036453328,9.740981067057612
7.454799116636669,0.04449673099173643,0.21351558000084425,9.596750512197834
7.457127468026122,0.08288566750600827,0.2049172710245155,9.739594951846543
7.474826237003787,0.09606014509795319,0.2516275000683576,9.837960174519456
7.477107300912779,0.09201602139439642,0.20607311706178194,9.664989700596937
7.494854282051883,0.09327207178043923,0.2586994019397776,9.70760031055432
7.4970870816037385,0.0828468282992137,0.21055376651416427,9.692495483312028
7.5148827235567595,0.12775315451614888,0.22416106878379824,9.8628391905037
7.517066422334343,0.005371593472587488,0.25187836268392005,9.63674383888344
7.534911624453011,0.04212261135899861,0.23431974733584487,9.634828193041098
7.537045287021316,0.04128358192857548,0.2199844019086196,9.722496287028116
7.554941025935586,0.07235502028337072,0.24276462904310736,9.772260122654767
7.557023587601504,0.028666996280439668,0.22218702538868698,9.649063779074877
7.574971550888497,0.03934834487152445,0.22005599422804398,9.558802634254816
7.577002450130494,0.058966744614234685,0.20986022582494543,9.772736755645415
7.595000799994786,0.04410957181102886,0.19430885686063545,9.689316730582876
7.596979354966433,0.04936182148617313,0.23633664285878406,9.612547284110908
7.615031698745255,8.769916846311417e-05,0.22100031796786232,9.575918536064815
7.616956292246458,0.08745291567345967,0.2173974061047211,9.796267734211508
7.635062977125113,0.005783416156821384,0.19088051183550506,9.709985454826615
7.6369328133083405,0.07352958458787551,0.22702417204059122,9.667687360058167
7.655094656221952,0.08485363310238214,0.23029981109028108,9.74085386931485
7.656908990139364,0.09068176570065133,0.20243855434644803,9.786969699014156
7.675126547126575,0.11065588354918192,0.2387448022172868,9.749958997461281
7.676885304013801,0.06070265354298741,0.2284100543313671,9.64453463123015
7.695158057200016,0.10578845085108732,0.23097688995662718,9.761441956526658
7.6968698387565535,0.046731592411747014,0.20242261299057965,9.763198636293163
7.71520484177574,0.1050637905515165,0.2358601919022635,9.727176306328358
7.716828124661681,0.04166526976364722,0.23632182772655755,9.598741983202983
7.735231291001748,0.09599869095764406,0.2272179057881556,9.712312461266102
7.736803604261744,0.05490325768841998,0.23489772726829525,9.750831080093672
7.755265168396692,0.09874053289883014,0.2394591344144236,9.731817715010221
7.756777045051748,0.062092603399214616,0.23085444549212858,9.674021475081025
7.775300214135818,0.006912433085545615,0.1780399519330054,9.705858734200243
7.776749684905152,0.03741730596197259,0.20563194437010568,9.77648052164038
7.795337427581058,0.00862758820994028,0.22174259275001884,9.609029516276419
7.7967210423647275,0.06260457634687773,0.2308786554310632,9.671773041463819
7.815374097079297,8.823756261468809e-05,0.19708457030511517,9.703981644957063
7.816692859754558,0.0978855263687672,0.20619434535923103,9.788294998838458
7.8354102697500885,0.06795800902924064,0.23031002916752724,9.63012490959973
7.836662455799429,0.058960649318168856,0.22708825390768064,9.676863490106518
7.855448332822785,0.07582896183061341,0.22723851453979396,9.809794934989592
7.856632034735444,0.04229159930396144,0.20955815778920125,9.760134155977598
7.875487126683989,0.07373046538829077,0.2407417350901217,9.70876333945025
7.87660088310447,0.07322113523383257,0.21384601556241356,9.717653769308773
7.895526651561599,0.08608531991295357,0.23835898952127024,9.85842509440374
7.896569007358915,0.11536817562839854,0.22839851455084204,9.699238311167125
7.915566863432508,0.11068981317799927,0.2503883258366848,9.67597463084835
7.9165367512730285,0.061302256496536124,0.22420542090466924,9.72118052147473
7.935609099759334,0.11840991142261384,0.18946023440888216,9.85135042882832
7.936502497522151,0.06127388128461376,0.21953177677706676,9.739967377262664
7.9556501737455445,0.030946041137106424,0.2394597643749024,9.60665937347638
7.95646831559387,0.049989084296956955,0.22390302983896337,9.725188242915621
7.975692846478344,0.016145876598081792,0.2015397831623081,9.765437930474446
7.97643320697073,0.07178615359698749,0.22816181982009445,9.746650556612247
7.995736400204895,-0.0075906712962660345,0.22421965898442053,9.608210991410136
7.996397223751524,0.06029394395434979,0.22146553434852403,9.723486859593958
8.015780831146683,0.018025079536645595,0.22879627181471318,9.757086358167923
8.016360360162283,0.05854204729350537,0.24033946076182133,9.694823152160486
8.035826134577645,0.01627132833419061,0.2364916177364914,9.605600799878427
8.036323253071854,0.05148515919143235,0.22868256731290876,9.741442926331604
8.055873108759886,0.12671740611437646,0.2181886876698231,9.83244809065485
8.056283679181874,0.07295508460981605,0.22583432328113062,9.666954149755398
8.075919767485038,0.12275897621771382,0.2551995561386361,9.72418496793679
8.076244027934877,0.04823305319549274,0.2036672288291407,9.782684374429726
8.095967956384186,0.1320689300498477,0.21665796622085656,9.783624083186544
8.096203333051767,0.04118518968758555,0.21610209125090865,9.633056547432192
8.11601717508171,0.05651740635452896,0.241337892607602,9.662312766398491
8.11616160064075,0.0373280370861073,0.21858299615635732,9.7758854751198
8.136067445701928,0.06125354402250014,0.2127608960536448,9.733375772257926
8.136118791935031,0.08039804463667809,0.23966303041450163,9.667850814166922
8.156118903700804,0.02770178104533024,0.22167034784139264,9.629139986529097
8.15607595680881,0.09836947253362938,0.22978421557610498,9.816102264015704
8.176172076558377,0.0007657391442046942,0.19225287544418868,9.712171420104202
8.176029754893973,0.057871170151651156,0.23875589436475222,9.621642304929654
8.19622490351039,0.0030923851928545323,0.2302471990810344,9.660314675232348
8.195983799972904,0.04695984400257699,0.21204473734036464,9.7808085189182
8.216280986556454,-0.002501556273520881,0.20084246258928448,9.675763647249271
8.215935997964745,0.059729499675680316,0.24849936271445003,9.6202587104159
8.2363359152287,0.0759090513876762,0.24137758917818702,9.739362175433222
8.235887446913368,0.0760925719657952,0.18757642815859923,9.766334859783548
8.256393176409965,0.11189843289429331,0.22332162022162838,9.734993990701822
8.25583753592789,0.030816209549832652,0.2169065699929823,9.610161698498903
8.276451459125848,0.06776878221188945,0.22775000755298339,9.762875129796603
8.275787266623254,0.10363770500071831,0.2355872122232486,9.76559169315908
8.296512368016232,0.08679614320890347,0.25528578038541244,9.683645996204934
8.295733454648323,0.06517539147913078,0.2633051440864197,9.645575459031166
8.316573242346266,0.11091044281409054,0.18040119991429535,9.785556814329002
8.315679379982795,0.09490357465208832,0.2595315588298774,9.78481928425105
8.33663609041868,0.09012694204009022,0.2531591064422012,9.697033769043957
8.335623780047891,0.0892822568964954,0.24168113963574892,9.66853143833548
8.356700468602163,0.006483962053541043,0.20463071802552465,9.713466340646361
8.355566624152429,0.08843054763166502,0.2660048815479069,9.790704891185285
8.376766440778855,-4.743045460704677e-05,0.2342428569514266,9.605564451939909
8.375507801325604,0.0729870215801514,0.22823717685961056,9.638688120076184
8.396834643565422,0.05068144598448443,0.2079421390336368,9.767386969987193
8.39544927899341,0.08851648026868097,0.19824189983967475,9.758297487947397
8.41690334634758,0.02467929873498299,0.21875336523137523,9.632073981932608
8.41538541811748,0.06437819250930403,0.2044644498883115,9.653336153098259
8.436974187359597,0.06647650610646157,0.19880729761581536,9.770694257593487
8.435321542388044,0.006946900951049622,0.1979530035407597,9.696416213065762
8.457047004713202,0.10329315821243679,0.250466667748017,9.662805743491887
8.455255793879465,0.07977200561797722,0.23815240019916423,9.706790002565189
8.477121716009975,0.13802613084714846,0.21380454122394904,9.772029808247122
8.47518811813145,0.07551529463996474,0.25147370016892934,9.755030692960666
8.497198388960406,0.08984537230793756,0.23714556604953874,9.679443555178347
8.495118468050885,0.08304783247073874,0.20743202198162042,9.737238008127683
8.517277973749229,0.09737753964581629,0.20178783821398827,9.790869004701682
8.515047107134896,0.09039458116108579,0.2084320738648471,9.746004354534616
8.53735784038664,0.008382252553869105,0.24032370773995695,9.619305163059492
8.534972820187367,0.1032226724782509,0.24693007214752835,9.768014550725058
8.557440948413417,0.05725699668546983,0.22240403462781214,9.739565280333181
8.55489661281312,0.1212406977164261,0.23858525845318096,9.726280639717924
8.577526318510584,-0.008356459621804015,0.214303032170608,9.616914331488024
8.574818064978379,0.056968209370240885,0.22922866632902533,9.723892869422679
8.597614088596833,0.012595096209052348,0.23623457723912633,9.76942115202923
8.594737059603503,0.07515062107870817,0.19397182568683147,9.636823583771154
8.617704376691847,0.018491524255463333,0.2020012954648576,9.619538120637614
8.614653475701132,0.04508380049677433,0.18613708964627115,9.732055250059078
8.63779863612977,0.12882122972330898,0.2433073384115625,9.821339422976937
8.634567929575258,0.05929557035111685,0.22922757239946792,9.598209738615504
8.657892617362464,0.09606237561682449,0.24415969873278076,9.702816139724705
8.65447844720645,0.04922973876795413,0.2052187550860057,9.77857604915653
8.677991163065766,0.09681026231490164,0.21800099674091022,9.763583764733202
8.674386490013895,0.08711649886987462,0.21868839640394022,9.612194606391473
8.698092614813289,0.09023599460844615,0.196721308810462,9.659779122051974
8.694291517571656,0.115402116832801,0.2344520346834846,9.82377862755449
8.71819715900469,0.07984057047040789,0.23777004134324653,9.750172024661051
8.714193389958574,0.10066389207131353,0.2101486135915491,9.678942033467745
8.73830488839621,0.04472461886832202,0.22029010953347744,9.71291267235954
8.734092332634278,0.13757406085625418,0.2179896970847559,9.852575358742888
8.75841727250225,0.02441250987423877,0.2034199313505011,9.65997956777818
8.753986513516187,0.049079495923682215,0.2258424628302352,9.612418504654958
8.778531317461637,0.008197159122239717,0.20493765236402653,9.719323771065346
8.773877932265256,0.06314964851829699,0.22261499056621853,9.771531033886255
8.798649882776203,0.041618471366091474,0.20790139643607014,9.708704609593287
8.793765396504918,0.04126085444480013,0.22383218227100107,9.621241687802225
8.81877244141577,0.05972176630194886,0.20688415857392292,9.698221968807347
8.813648785464945,0.0795223110971501,0.21010715232083207,9.791211592893406
8.838899170522547,0.08174601262650186,0.23234221282904385,9.672959807376166
8.833527902373756,0.02573106482342318,0.20520709172667775,9.590088699767506
8.85903027477029,0.0720621314238252,0.20591083557561077,9.801720526423825
8.853403137698917,0.04665113240750059,0.197000230049203,9.752057481812871
8.879166029009125,0.06608952358966559,0.25222083438745063,9.659542196258919
8.873272390839595,0.11164098056326546,0.21244544187143008,9.697437894173284
8.89930660458074,0.07414436073609805,0.2066102210994848,9.791378755501814
8.893137288941537,0.1256616177096777,0.24156461785261962,9.786478573914279
8.919452312986062,0.06896811180585195,0.2486031223260744,9.646037429102442
8.91299692009242,0.11476248487008173,0.22023218904383104,9.721008803433985
8.93960343105548,0.017101570637095755,0.19292859173832694,9.739289469540736
8.932850994081331,0.10437853863726296,0.21964785612757703,9.786478860131847
8.959760256429613,0.03420440013761342,0.21886917733028805,9.625240698725426
8.952699213404607,0.08807549538915685,0.2392395282254695,9.697752994166823
8.979923057602583,0.05528203285659462,0.20096901659778982,9.7882649043678
8.972541620967668,0.08157053756781224,0.24080854867323498,9.780790920086583
9.000093499860585,0.05684811756662546,0.23914131337282782,9.697439724934501
8.992376156561946,0.031205237979976104,0.20749295513507152,9.70623577596912
9.020268817996051,0.08048877960117211,0.22129824284567576,9.77265755460834
9.012204624632364,0.011711871735592919,0.2050413661019523,9.68004678647015
9.040452064184144,0.041870683654534425,0.22601886167567342,9.64215945653595
9.032025705114904,-0.01022717281856923,0.22527206167881653,9.665009360391075
9.060644389783445,0.12366043512449792,0.23512562598278605,9.789677797065977
9.051838215877572,0.0778890047641151,0.23063292553211928,9.668818870466417
9.08084251565765,0.08052551105738603,0.22279080590638084,9.647703526946664
9.071642836577874,0.08955085408690469,0.22269873623049935,9.774684568580453
9.101050399929736,0.08669891320959254,0.2008237458825003,9.73760566762725
9.091438363088601,0.10841841336578617,0.2370712510816217,9.721580100375645
9.121267620171388,0.03687685692901421,0.23822726210498385,9.656612145642775
9.111224256285738,0.11286945911392966,0.22295151943584868,9.819781011993394
9.141494795198252,0.0793372226898416,0.2075796602089515,9.779106814864052
9.130999854498796,0.10297295207729341,0.2395020150960135,9.688112748534145
9.161732623278208,0.059753286648761006,0.23919437842328517,9.689258459540444
9.150764423147846,0.0416055330173986,0.19853550379740986,9.73928203144913
9.18198187736801,0.06373618142177838,0.20668336678442956,9.764025454481876
9.170517146421219,0.0057566562687550666,0.21772003342769755,9.587201846363788
9.202243426673418,0.03662236037789977,0.24011379416302203,9.655752326289079
9.19025706318739,0.01743777190415565,0.18455458274077777,9.751551546785757
9.222518856229161,0.08726355564755277,0.22699468819664523,9.732845082806511
9.209984893677179,0.013236684808837057,0.23506116426517518,9.5998295423626
9.242806692831966,0.060702408897861174,0.21201471839171526,9.693741164671696
9.229695323708366,0.028355974297227044,0.2053884855204693,9.75137951206677
9.263111058117698,0.07567739902315566,0.23482479096825323,9.718514003150245
9.24939088209971,0.027179860968944012,0.23183823353313726,9.629591385710356
9.283431961125892,0.03844112787884516,0.20122874690887688,9.657508336140667
9.26906917156712,0.11923128771273052,0.2590819593729313,9.836147358342922
9.303770870928638,0.0908645288615119,0.2287609578232098,9.699839009955507
9.288728683191836,0.09669237828737878,0.2373342552656526,9.69309577534606
9.324129372289443,0.053244680834342986,0.24001889618122765,9.731584153046017
9.308367749503278,0.09782984026535331,0.22790459343956268,9.810297516389568
9.344510587546115,0.059793597514175026,0.2577252579261719,9.706455782285271
9.327985185808847,0.10651054113500394,0.23753148549577993,9.70504711118886
9.364912074631006,0.02712913644194831,0.207631162050502,9.729356453683069
9.347577156153886,0.0721606768175489,0.23126308033371315,9.764989224281797
9.38534080114702,0.0828045178588144,0.23237391129115184,9.68608664752577
9.367142806912488,-0.005287393837595986,0.23701413307537414,9.645851621195096
9.405797489517592,0.0766965528553452,0.209789230148417,9.752945305271824
9.386679075300963,0.044069504928353646,0.21204401375667872,9.749811798866563
9.42628504200328,0.06600404195801274,0.24443956940876801,9.60431441905607
9.406182907869983,0.017217235865553494,0.21667617561179767,9.613858169473101
9.446806701481322,0.06050911699096507,0.21329160340643488,9.727272975043752
9.425650878450572,0.04587932861442476,0.19591672004011218,9.70614015901849
9.467367313581805,0.06302600272617177,0.19995938272146668,9.625995634186367
9.445079352396942,0.10708264616401646,0.2404963045256549,9.721390945447528
9.487968923602413,0.08227314500880596,0.17651574013221719,9.707242998348756
9.464461925047987,0.13547426469321924,0.23277418570295344,9.782744614363876
9.508616925934362,0.08908445878734202,0.2240291694998215,9.612695064023471
9.483795625363028,0.0865016904803531,0.23052763613427438,9.742933445369733
9.529318504112092,0.08020260971606064,0.20795899376768037,9.792996266059356
9.503073148090328,0.10607730058173778,0.23882436789208958,9.77408637252654
9.550079704352608,0.09112456150396495,0.23125442461238077,9.64539620993411
9.522287275367823,0.08089769234062012,0.21602567992218222,9.732947697910639
9.570908381243319,0.08110052776619978,0.22152127145863312,9.822580067444468
9.541429776910908,0.0633321630162266,0.22089010837500897,9.699312436471521
9.591815250839815,0.09525097783007913,0.22697289396027595,9.681465719266233
9.560488627865379,-0.028945061981977018,0.18840486924233743,9.700797638457288
9.612808455163814,0.09313978027800406,0.22421708280373828,9.79961610185098
9.579453738290836,0.011385292142773685,0.2363793361533201,9.646525801297436
9.633904179497055,0.05850684197460815,0.24687930290469798,9.605654884868962
9.598309130285813,0.024154889505922667,0.21106406775653724,9.75039895491148
9.655118222886708,0.07791307076178455,0.18801445691469898,9.76096557883145
9.617036626585595,0.06401569456900492,0.24180440781835338,9.65869639666866
9.676470812937698,0.03056829615336469,0.21319569682012657,9.635545919542864
9.635613710585067,0.10155474200157916,0.22013431955143684,9.792040838884311
9.69798704796985,0.042602897459690446,0.21870658101431903,9.715182707927248
9.65401322813905,0.09192561689097564,0.24990355635797823,9.638993581041143
9.719699898205583,0.007201613852838519,0.18890201892268124,9.60548843126455
9.672195868984685,0.11021051371868723,0.2274372351021294,9.81908221997009
9.741646618236704,0.06785382470750387,0.2128945693831866,9.750128347288824
9.690119901158992,0.11328256047174577,0.23795256909885057,9.660788174260162
9.763882164137895,0.08267887682196426,0.21666803305444968,9.702127577425863
9.707723687537717,0.09448800018574731,0.21805627170808067,9.811076805687133
9.786474889970863,0.08783701595424387,0.2289575752526665,9.762748810920497
9.724927391440232,-0.0031484087659253888,0.2070525639596969,9.592896254642447
9.80951777271355,0.06666326279964215,0.21588322284620556,9.674274279846152
9.741622154536195,0.032750703311448234,0.2218627680258823,9.77460127626925
9.83313893742884,0.09204697026758867,0.21126197485085585,9.732387721289907
9.757655909031852,0.02412461413260903,0.22995952200694952,9.641475557718378
9.85752288343669,0.026912790133243474,0.20614806380020123,9.69014108263843
9.772806742996142,0.0560286739307268,0.22773705626614413,9.788723832586248
9.882933095404292,0.053277079091318055,0.22172572549220362,9.662998488224153
9.78674796112573,0.0372934906762914,0.22386550521437396,9.669498249283032
9.909782831077035,0.035898205634549256,0.21498706864044775,9.691213483532525
9.79896131819035,0.06691427750265848,0.21558647560753175,9.797235821183914
9.938732433084814,0.01815929634678388,0.20761576437504323,9.591974884595176
9.808587475904824,0.12442793256975047,0.23230749072292906,9.714693119599117
9.970920346544661,0.08222224337090542,0.21366765309763272,9.756813298516608
9.814085170647648,0.11280471360931306,0.22852914694432783,9.799377950849284
10.008487100699963,0.07022105294987786,0.22532201828305776,9.662829141405966
9.8123913647854,0.06018952117883733,0.22480620575554178,9.687567141672506
10.055981140918153,0.06936911074766608,0.2153828027922086,9.787046063790829
9.796435273870282,0.053350125521972686,0.2268056166714506,9.738403651377652
10.125042777064856,0.10507227933720004,0.2368256282027343,9.676579752533753
9.745527279520982,0.039652563433634894,0.25159030260628346,9.676891176849779
10.256628372107027,0.13859372536753978,0.22048832266075216,9.838464820409516
9.56408753614596,0.028003310077960825,0.19863470358126106,9.72571419091847
10.751085818323013,0.17248055656135491,0.2415115584219416,9.738583110232726
