Time (s),Acceleration x (m/s^2),Acceleration y (m/s^2),Acceleration z (m/s^2)
16.668421089485285,0.10005116133732872,0.2339523058344759,9.692977085128726
16.745218727622575,0.0718761254324619,0.2153671350878454,9.821392430905844
16.69047509281405,0.0927018034632854,0.2497862139117216,9.756947297819787
16.76329397102561,0.07513207436059124,0.2183480448102922,9.686680509665424
16.71229460498528,0.08728504420498659,0.25042379479802823,9.762716992184139
16.781583618224506,0.004959377222018055,0.19262453640285834,9.675813846276803
16.73391883742007,0.1090838752924098,0.22524492268982405,9.755052051330292
16.80005435233242,0.014957541224781528,0.19984341313083442,9.601266452136194
16.75537445267074,0.09525157789643092,0.2400623322183715,9.746166185375648
16.818677249102514,0.018549431672417658,0.2013106212451865,9.72898147059168
16.776689366726124,0.10036726813720108,0.2368684326081655,9.779866392974817
16.837432269577292,0.028946239638550173,0.24153753366480057,9.606207054916695
16.797882268170834,0.03198442488322016,0.20510930175590264,9.695640715338158
16.856300654256763,0.11208880219824728,0.20390742126198358,9.738626541221084
16.818969820412132,0.17197427469622067,0.2467112251104416,9.675093089013625
16.875266542245726,0.34262271916705506,0.23239226817416234,9.626606501521126
16.839971009811233,0.43564248294235886,0.21021334515711762,9.701668349724345
16.894337572456557,0.47006089124607847,0.20302956685734924,9.817055743275564
16.860873301610233,0.30963798642282964,0.22541168374791481,9.64895922199487
16.913457615390865,0.180032667353153,0.2090650018410192,9.689788672035284
16.881715336025024,0.1421794836552688,0.22242343615251894,9.761217030455775
16.93265326563405,0.23917017231643806,0.21741594641999135,9.777007058890815
16.902494222733015,0.1931615594351729,0.2412971307073174,9.651870116824506
16.95191034890581,0.005995726108321964,0.1758316055625193,9.677078988122465
16.923216233536746,-0.07840551269190835,0.2517291808444976,9.794923862284612
16.971222324820488,-0.2269037608658582,0.24721803980104154,9.71084104438396
16.943887519737448,-0.18915350665756875,0.23574613481616818,9.74758493899778
16.99057978782119,-0.3611458860556387,0.2388119971690208,9.726090473340872
16.96451334941372,-0.3224682595291795,0.2468088543646696,9.798781395461791
17.009981655460336,-0.3311529931138453,0.22720664703287416,9.694998241692229
16.985098177884783,-0.2706994851747512,0.2068794372998534,9.642929515243685
17.029422497970337,-0.3017312894816822,0.20697772693689068,9.706064704134922
17.005645922608316,-0.4552984259531408,0.18799310745127926,9.71587483612371
17.04889865480563,-0.4705631180780216,0.22532445122988895,9.761440059756293
17.026160010932948,-0.48964793719853594,0.2046855990399054,9.636915497043104
17.068406912725123,-0.32242227824977715,0.2342036602638307,9.750457526084407
17.046643458820622,-0.2719725254952805,0.20632164454800922,9.766175561160725
17.08794443793116,-0.2212240693846527,0.2325118653048377,9.684564097568016
17.067098931578816,-0.38887505627857755,0.19872452768010823,9.613050639369135
17.107508721185987,-0.3392386733232243,0.20730108204902145,9.7531002825192
17.08752879368895,-0.25911762805141825,0.21410799105511666,9.759071080280407
17.12709753243662,-0.09121543480345105,0.18112269909480508,9.63053662352588
17.107935150221625,0.053453354226829466,0.23869103619952953,9.779192014855346
17.146708882940764,0.061127034076684364,0.23278949626786555,9.748821955316993
17.12831988153233,0.16285068841875805,0.22749993870813806,9.79932696826013
17.166340993428605,0.18361374114474235,0.2249521751477397,9.633952392997939
17.148684672534735,0.31405039901397364,0.24381472091182874,9.781465232356837
17.1859922671085,0.3982014821885183,0.22959502084555333,9.790131266777584
17.169031037753676,0.625590014724842,0.24027914053765784,9.792676213599645
17.2056612659631,0.6649292802712605,0.21072098778110818,9.67732040749984
17.18936034544359,0.7202255217261254,0.2314070938490724,9.75870049706864
17.22534667729115,0.7108214721057925,0.24666107342084434,9.80387708203908
17.20967396625461,0.7887834983720542,0.2103307628988057,9.731627822150598
17.245049087621005,1.0234583107322064,0.22109497478368126,9.717983115396104
17.229973338766808,1.051767717967014,0.21163144622184576,9.658774600222097
17.264762102091968,1.2125757893531897,0.22514570824237282,9.808326039301615
17.25025774187616,1.099093026243147,0.18883311698238098,9.66702901272361
17.284490287830582,0.9153258289083012,0.19882660658923512,9.63377956308167
17.270530006256454,0.621077092628721,0.22070199228384133,9.659650243967954
17.304230743859318,0.6776597391711732,0.22532553835025462,9.781514846201613
17.290790366937973,0.6339528996425857,0.20338377765881843,9.664864699917631
17.323982719994707,0.7160300210600092,0.2385471385829816,9.660949983507114
17.311039586262012,0.62946781505842,0.20725156104086603,9.795355008822638
17.343745455367873,0.4420783254270543,0.23121093617550598,9.785204237451927
17.33127855237704,0.38123409917567785,0.23544796793261236,9.681720043564727
17.363519692262173,0.194927837766884,0.22933446202693758,9.639243015058323
17.351507648711188,0.22423452483158374,0.2174270047727878,9.775770375024742
17.383300848415498,0.006591640236016733,0.20004264874940814,9.701712582656379
17.371726931603035,-0.08048466378161918,0.23250450945058146,9.756111775316771
17.403092227585347,-0.23608188993815926,0.22308490019642316,9.682511740493457
17.391937977507006,-0.41595416032227983,0.21638515974334185,9.733811741575792
17.42289199096651,-0.5330541415827749,0.22002927982661746,9.75575406502521
17.412140868623332,-0.7387615435080114,0.23222314367524377,9.71220047921507
17.442699671327667,-0.8835248242389001,0.2340501345602241,9.762434549720787
17.432336081107817,-1.115832476355014,0.2351406378761651,9.682369005965839
17.4625147685324,-1.115500435605418,0.2446898887874821,9.780202277692396
17.45252468907687,-1.3675157587794946,0.23727945751301482,9.658354646202573
17.48233895722678,-1.4564560780791806,0.22314496626336724,9.6952009214785
17.472705684929192,-1.5697847803715697,0.2624061605340989,9.724535558881632
17.50216591479291,-1.2101678892615209,0.22932900785031132,9.78225617975935
17.492879611093727,-0.9284918777802789,0.2442509991711789,9.676453079999403
17.522001220306144,-0.981637892789472,0.19508996801485085,9.625559093140813
17.51304799056053,-1.0390624290391122,0.2428342739016906,9.70461338142754
17.54184245421631,-1.2173313292578463,0.22758010602754083,9.663477565391322
17.533210556491696,-1.127678681647529,0.2569432901290585,9.626668955570777
17.561689362437033,-1.0764474175906353,0.19979559092190602,9.652194670110054
17.553367584398142,-0.6939272549625295,0.22469460350428747,9.780138598401942
17.58154171055051,-0.5474306247632531,0.23997789445040849,9.727841386867725
17.573520569901355,-0.37225608250107006,0.24458174308977226,9.650626931838712
17.601399706650167,-0.2795388492255046,0.24183407775229404,9.7433924605738
17.593666171610717,-0.13630458814503887,0.23170294425604485,9.764063717773565
17.621261343931828,0.07228059142421797,0.22209107652041088,9.778973976840382
17.613808226840984,0.2046761661891028,0.20356521726099555,9.628379043130392
17.64112825909133,0.32926079624603005,0.21979491734711187,9.75356093012654
17.633945745778487,0.5404887494123487,0.22645787736468714,9.737717219621548
17.660999597673076,0.873576020684163,0.22663231795995573,9.796354984492627
17.654078942445608,1.0087594342749735,0.2231640638977438,9.694108587553439
17.680875169517066,1.3523455077943223,0.24223155444785052,9.803504713728113
17.67420796120513,1.6293118807345706,0.2168913595941213,9.775577475211293
17.700755181918385,1.7486189151566316,0.21294764697813096,9.765269914015285
17.69433478008961,1.8060086973607106,0.25578817021757466,9.754670823953955
17.720638537556184,1.8220114016822868,0.23762930287500064,9.74736133874065
17.714454804230666,1.8896735965027156,0.22851665652692615,9.720436189614867
17.740524995207156,2.0272741949474553,0.24633056593627992,9.672630071891058
17.73457265010442,2.128668505679005,0.2501757079677493,9.665099723554171
17.760415549449796,1.8637775597242099,0.20908650192532274,9.771217642214914
17.754687076736147,1.683258693569862,0.25220442148993655,9.732932595295905
17.780309453182603,1.4908655847948995,0.20365959217390753,9.5973912585988
17.774798217194316,1.450397916118233,0.201117854072266,9.707259354217907
17.800206590583432,1.311844034891331,0.22640155174562465,9.77476920387832
17.79490613976612,1.1192724321945668,0.2335784743522005,9.70488107577829
17.82010727019433,0.8504825652169961,0.20798287755865996,9.694345932804934
17.815012251423106,0.6598354395066052,0.21293143037707285,9.627194060443387
17.840009487667263,0.6338550973013354,0.20818648484638594,9.841403602899799
17.835113668796815,0.38354604583527063,0.22050932768552314,9.680942218698497
17.859915525353983,0.2245104208685437,0.24873637326051268,9.731251236313566
17.855213005432212,-0.02117469305958706,0.22624010747704307,9.713559032986645
17.879824177410175,-0.26736835407120235,0.17301315487352484,9.772097140869803
17.875309722090297,-0.47032900557656676,0.26790420014701083,9.615675469561914
17.89973541751448,-0.7480056269012554,0.22403615997465812,9.66183537465696
17.895403888371927,-1.0846574149787909,0.21894043707045457,9.717208519746213
17.919649176433172,-1.2003458411139551,0.22513651875905186,9.741783700373663
17.915495537116996,-1.3583543818693087,0.2260779056283668,9.724991057443805
17.93956644314201,-1.8801094474428406,0.22011355396574653,9.557988585247863
17.935585984247087,-2.189865010751325,0.25014084959064736,9.72790698998873
17.959483358349342,-2.441809507542919,0.22871018781101032,9.641945156902155
17.955672404538724,-2.493716904153105,0.2444781797651794,9.662677979865961
17.979404103802985,-2.5834041292287724,0.2354183641219148,9.488971826400661
17.975757323030585,-2.049826954136279,0.25642894027403307,9.680570926036424
17.999326889639605,-1.5561848640754345,0.20575525239958994,9.752229521195657
17.995840185559135,-1.5641207933848096,0.21093974432447327,9.636096905703097
18.01925170674378,-1.5755816876101434,0.22034191067454753,9.615938732868221
18.015921055307075,-1.5268011517461304,0.24187592239565428,9.648946674173482
18.03917845769851,-1.375900702582427,0.24225214702568534,9.769329817258733
18.03600019705055,-1.0111626411810233,0.26127433350394913,9.648114384504574
18.059108497787964,-0.7229171551707589,0.22661091477553624,9.676183950167887
18.056077367733767,-0.6770833598726371,0.24296829472908393,9.670566666049341
18.079037786048875,-0.5206217484001125,0.21887649751866944,9.603505569465328
18.07615217078027,-0.27283168117799567,0.20751225755275704,9.7218202674785
18.098970136882215,-0.06415241338230998,0.21251634664628075,9.69236336318633
18.096225649375153,0.07681545075283314,0.27513878052714397,9.818292316237462
18.118904174433656,0.21611135513947727,0.19708703064852998,9.74031311058325
18.116297452901176,0.5291069498636478,0.24375912543821882,9.779572556012827
18.138839858289856,0.627389540153368,0.17241402903437947,9.726070966621888
18.136367646105207,0.9802231667564191,0.24153271510246105,9.773833517136449
18.158777097547546,1.08721679249241,0.20589431659763538,9.64782387675373
18.15643648940779,1.4079896625321868,0.23866060789996266,9.77099402702396
18.17871723613822,1.626350586393665,0.18300925426108067,9.8119207175015
18.176504206236682,1.9573535552905579,0.23245113504071016,9.83805964571687
18.198656643378143,2.226774708195656,0.24641923275928385,9.716844951635947
18.196569385953303,2.3142715541125733,0.21152203456459426,9.701435526557693
18.21859808811192,2.420600336352269,0.22801758702874272,9.801397901124142
18.216633083269237,2.2024236911830073,0.18997608911872135,9.74978341503859
18.238541319388506,2.251391188183921,0.2482118309133982,9.73508283329592
18.23669587768279,2.0475766615430153,0.18637199703325996,9.58419706072652
18.258485854682714,1.8796609099029944,0.21848659711014398,9.812638816357488
18.256757367625703,1.613772444544947,0.22692681636135992,9.765421773916676
18.27843165342298,1.5733881148336863,0.24987766531426495,9.738064286644642
18.27681809688545,1.4967916521177116,0.21380568925024057,9.712447869723672
18.298378981074926,1.1241751613053095,0.22014103706999438,9.769535667896907
18.296876378161297,0.8723506877210291,0.2639937063213829,9.72902860131251
18.318327247189522,0.7333694223685508,0.23055216085209676,9.751809719177945
18.316934126785945,0.7231294596181697,0.19600056488355433,9.766191361591282
18.338276776469254,0.5051687302209058,0.2152084992161157,9.721254876857
18.33699068119331,0.3987993860007277,0.24284681658344406,9.775698564736459
18.3582274714523,0.06528495361106738,0.2384641186039854,9.63999254974854
18.35704609056774,-0.07913811902424552,0.2448994505519164,9.718822213768396
18.378179294670737,-0.3299384117181814,0.19515817593348664,9.771714990624613
18.377100382015104,-0.5533246987874981,0.19350871590220659,9.56503425123827
18.39813226688162,-0.7729004604280867,0.24144801375526687,9.722069896827835
18.397154825691803,-1.1323771095585131,0.23627014771704316,9.636182716670154
18.41808678505343,-1.2486013171173567,0.23399480851826707,9.664355743568393
18.417205817845733,-1.3554599269956293,0.2127955870063822,9.6946991874002
18.4380411420591,-1.733483515685078,0.22200598235974583,9.627095125461759
18.437257015894026,-2.2153238160807485,0.21003504721775842,9.619956084504402
18.457997119260728,-2.3248535564809814,0.24823989159478446,9.74282839193069
18.457307222596764,-2.482531430015791,0.2109417907578203,9.664726624853685
18.477954064120595,-2.5537594187853663,0.2266100750398391,9.626264395549045
18.477356478731952,-2.0544728011777,0.22704431769621355,9.71615680629025
18.497911943343983,-1.5366020211999503,0.23429168250962895,9.700938757287657
18.497404816214267,-1.409832577409361,0.25817392670842493,9.692948732958033
18.517870747344578,-1.4341596422965175,0.24925690347213045,9.687564661849262
18.517453715144963,-1.4248682753838158,0.25353023762012805,9.717684227606536
18.537831564666426,-1.5410066486767922,0.24059036694111352,9.700664190177196
18.537498574753805,-1.1914822794899604,0.24510009689821735,9.725888368746391
18.557791128882833,-0.7589864438353333,0.2330802515313249,9.665712670829341
18.55754435776629,-0.6251189029220087,0.23705212199862224,9.746083530798444
18.577752488701616,-0.6076194597033778,0.24090175994020288,9.694996616335876
18.577589239814223,-0.3722932030439095,0.22756156565270974,9.680842644397703
18.597714695270817,-0.15209007764164992,0.22904218078770738,9.776809819104052
18.597633295697126,-0.040498627633788795,0.2569377807764677,9.688764327138392
18.617677721386716,0.25395954878309523,0.2312955445942227,9.754770281684735
18.61767650972389,0.43604650745844364,0.21173113552846076,9.669809505770248
18.637641927263125,0.6971945738897313,0.22371120037697964,9.778281645229187
18.63772090402619,0.9309968662652045,0.2197266261435923,9.77312630111465
18.65760633832077,1.15473765740173,0.22873466441761153,9.712377489978659
18.657760816771965,1.3220938296623335,0.22192032345173424,9.688720892652308
18.677571290680106,1.558435530986626,0.1952727068807727,9.697318732831938
18.67780190504689,1.902877080931141,0.22829973711066145,9.754478536974023
18.69753726310522,2.2359103350746734,0.2242643084012341,9.735756000838556
18.69784224298778,2.3111831372553837,0.1986610013313914,9.71859373658836
18.71750395053492,2.3731976009939246,0.2098119890484166,9.730056499093063
18.71788187813525,2.2979507977229368,0.24724476064758144,9.82075948618225
18.73747133948709,2.251340088647112,0.2333828928211007,9.6686491804798
18.73792078822869,2.1500344213291562,0.23567569279617998,9.743576421690705
18.757440478354606,1.792439494169529,0.2432657084094503,9.765862131224987
18.757960393026497,1.5391476837059892,0.22262408781467688,9.730756858171594
18.77740820855417,1.5087162613277338,0.23753054049258682,9.747230062280597
18.777996892999855,1.5267079402855164,0.21449340110158627,9.714553402757447
18.797377264566677,1.2806873963366485,0.21176481099889952,9.744324586423192
18.798033982808555,0.9399566454774281,0.22883807695377348,9.70976677420826
18.8173471710456,0.8394631784848215,0.2598422102484121,9.753634345474682
18.818070444120387,0.5074352274577955,0.21576214578043953,9.713454653368412
18.837317678291583,0.5067609136135377,0.21077885504276372,9.740994373444867
18.838106321033976,0.3490823299321363,0.19561665369110917,9.644180336540478
18.85728874280283,0.12025176017775704,0.24251317139206133,9.657978313642738
18.858141801709017,-0.08367615542126988,0.23488197722593382,9.717785206699734
18.87726211524328,-0.3495532655004,0.2249947332948359,9.75063944889179
18.87817760172269,-0.49523023464360816,0.23941487686264767,9.705141929313339
18.89723265686019,-0.7220549197226858,0.232712107454504,9.631187312052164
18.898210522744,-1.0219986917823014,0.2427035945050974,9.715026433036538
18.917206066281196,-1.265353741453299,0.24112061277969926,9.60976164108827
18.918244102265746,-1.266385376299237,0.2449960238075312,9.660784757882563
18.9371787560548,-1.7697719308434763,0.19054714627377256,9.593766028822158
18.938277236475642,-2.1871566394310347,0.2127018256717279,9.675586989729391
18.95715255416112,-2.307485253808979,0.26931277175490553,9.689940477683837
18.95830986812635,-2.431476371695307,0.22717039841595474,9.645485857390819
18.97712680760758,-2.542910934885241,0.2732013812330632,9.679470566223571
18.978342253267346,-2.0616339841484677,0.24146755691410463,9.72371954251543
18.997102837267473,-1.45408966147774,0.2528741510353439,9.741080075483724
18.998373313836268,-1.4745779018783924,0.2092890659068464,9.639121050051248
19.01707717941178,-1.4012845549706923,0.23657122278552867,9.729937690850958
19.018404532141357,-1.4068665289252729,0.2449615164020628,9.71259239812027
19.03705292116653,-1.4749119039221508,0.2274562792392087,9.716049319385954
19.038435212891095,-1.350585007039665,0.23193787764137014,9.663749276863324
19.057029149229376,-0.8545070858533732,0.22614864725725692,9.699547536389169
19.05846542844204,-0.6253806176600902,0.25577945143067693,9.719723264733084
19.07700582692882,-0.6335936990164166,0.2134756178998967,9.594952055403997
19.078495213223604,-0.3404439864916093,0.24864923956811005,9.692912689281888
19.096982895725983,-0.17958365112554014,0.19981642220807028,9.670912709052185
19.098524815519077,0.014452742265336983,0.23226136739656542,9.65651550740908
19.11696167981249,0.10155313423722308,0.181263412405065,9.712848018385392
19.118553146521215,0.4400589955895592,0.22922691105596119,9.665546896797833
19.13693872045878,0.6388061343631304,0.2287725234373892,9.715418283294907
19.138581698045943,0.9327120157332042,0.22044791030222696,9.788141006357565
19.156917101144217,1.145305557182708,0.18697335585681352,9.67257252845932
19.158609767343826,1.3253524289957117,0.2531224555665242,9.758165516243093
19.17689591394158,1.5632589793379585,0.1792641632957476,9.762090294331156
19.17863742361007,1.9553674648604722,0.22804700251309767,9.734221792337728
19.196875128088386,2.391681026045191,0.22390704659790306,9.829848075852649
19.198664686905282,2.3652312474545765,0.21413065665854156,9.798701328819384
19.216854753843954,2.3670791150027237,0.20211170108765214,9.807947440062929
19.218693043988477,2.1781918973032317,0.23988705211139957,9.729266494131533
19.236835850733627,2.324573608665264,0.25312626370307706,9.73368213009584
19.238717822819755,2.202500020329729,0.2405712317469385,9.841646107417585
19.256815258693955,1.8008856848571,0.20921698023232238,9.758149504285885
19.25874402372856,1.5434507482366189,0.2113817381943697,9.793330982126292
19.276795966041895,1.4486889000258474,0.2533006765118547,9.734019461898693
19.278769790597256,1.4989230377751213,0.21545991686158764,9.761569896624348
19.29677705751488,1.270990353553942,0.19715911932297153,9.736955718383086
19.29879519142093,1.0065402067966782,0.24153010406344136,9.750734576608304
19.316758504384527,0.7163204714367376,0.21215990556782818,9.69420266704979
19.318820244139893,0.5765254676273592,0.23409040876437245,9.78451321037566
19.336740319816105,0.5332762075176554,0.21444474360279656,9.796905701834676
19.338846437383655,0.33955559184964623,0.19479572313087545,9.629859968768505
19.356723557486593,0.1234819975572996,0.22794362838291074,9.67919560990358
19.35886908765485,-0.13322596054660235,0.20740669146828392,9.726410279879776
19.376705075328907,-0.23394893332653302,0.19806289041358252,9.732557763500497
19.378893201421086,-0.5680403058265484,0.22812759776400807,9.624012290530013
19.396687852208636,-0.7564406713298054,0.22189318394768529,9.595337983667354
19.39891691486291,-1.0360368622136928,0.22329790192331372,9.707967602319536
19.416670983649944,-1.174355296492298,0.2507326284542631,9.58500540243003
19.41894028415191,-1.3167169968504244,0.23001475196320398,9.711991168276997
19.436654465153996,-1.858816748865615,0.20216575880026574,9.540531815669683
19.438963262051274,-2.1424253351735962,0.23847862985620844,9.752002479508318
19.45663873177396,-2.3392759947597406,0.2852632352836328,9.635970314188599
19.45898763676598,-2.4011688392328536,0.24032848871037588,9.687877345644543
19.47662205357012,-2.492874671793422,0.2544484959640054,9.688249590155735
19.47900875291251,-1.9694890690615627,0.24945567607867156,9.767777481103673
19.49660645981298,-1.512466381110159,0.23919978964374797,9.712150071617302
19.4990308922377,-1.417051260304949,0.2095073046882681,9.674546938682871
19.516591127331907,-1.4434401941414232,0.25451931585307336,9.676679596942384
19.51905275713935,-1.489590567586369,0.20452015038593974,9.646558687363987
19.536576077416324,-1.510072339701943,0.24853243863123262,9.765375329670933
19.53907433315946,-1.3616156284791208,0.22638507180537362,9.58878858803145
19.55656132725106,-0.8173075732267895,0.24684271465826582,9.760513852887362
19.55909557689339,-0.7363290461491582,0.22513306054246435,9.704303938084003
19.576547973991964,-0.5076394533938259,0.2497198999003962,9.725855957813412
19.579118163080977,-0.3821902369914423,0.20727587301613426,9.684369126823231
19.596532389433012,-0.15162974483789032,0.1849068445090758,9.730438330760137
19.59913761544996,0.006680016879971401,0.2544582432577121,9.683962928205135
19.616518459212937,0.21525015145747162,0.1727975431451441,9.647897654775464
19.619158105088243,0.4707128374979344,0.21800694258520245,9.70734179418681
19.636504760869197,0.7885702778682248,0.2244685854914354,9.710202264903725
19.639178352641235,0.9000138966110023,0.26102996814334767,9.766858287694355
19.65649130987008,0.9577948004089383,0.20842072518224855,9.650631155586165
19.6591983513764,1.3136892450391402,0.25141692885176276,9.853287964295667
19.676478107483785,1.5985116528820265,0.18775961688386228,9.794088917823638
19.679218102505313,2.039077296568633,0.24077941377706638,9.774780823015288
19.69646515128318,2.433386951525356,0.23852587298970368,9.765225364855999
19.699237609096393,2.4331210876910827,0.21396325021228096,9.854852277492238
19.71645243784066,2.3562255928089852,0.22778861358447114,9.800066568852493
19.719256874792272,2.2172655827180594,0.22571132877552505,9.79345613999725
19.73643996336684,2.2646839249406905,0.21500280605772326,9.789846805377602
19.73927590351834,2.147221037325667,0.2331741830566311,9.705866951479951
19.75642772373624,1.8885885364583481,0.21558798345755742,9.75939610440854
19.759294699825716,1.5226160125076977,0.2156285388084665,9.737852621835989
19.776415713269067,1.5027388080478008,0.24213361750356682,9.726363658632371
19.77931327304145,1.4707337963324845,0.2006731636495499,9.752423443303533
19.79640390658127,1.2815481908805548,0.19364193892636308,9.669430620141318
19.799331803660607,1.0288244913648277,0.2558136206415575,9.77569027643985
19.816394121061954,0.6833085235118362,0.21945933155221445,9.713681207237347
19.819350393140134,0.5477735415530395,0.1917536771253511,9.730760426414648
19.836380904287484,0.46958079890323223,0.204934663300273,9.666460518883733
19.839367702670476,0.3368286207808209,0.18423331853918173,9.643053148295065
19.856369861805465,0.04272166376532939,0.23206499482855908,9.676188317136107
19.85938536344194,-0.0942158504101856,0.29738916140986915,9.689143411787608
19.876358960117674,-0.42086777425034594,0.1964566119068499,9.774836037305127
19.879402844956967,-0.5871661304466613,0.2445135954213711,9.626905753634725
19.896348240472868,-0.7127641519480907,0.24659386056518848,9.679514491772068
19.89942015952057,-1.121447625809325,0.2055324202686948,9.688993466701033
19.916337629130666,-1.0870570857058224,0.2494732376911507,9.683057007843649
19.919438089150177,-1.3721345930483655,0.19919580830786066,9.618370085255854
19.93632871949965,-1.8824491318477197,0.21282206423012942,9.646610270357964
19.93945371850289,-2.2445919852267733,0.2607205806009992,9.718850877273708
19.956317619245805,-2.376499844872465,0.24593185474328103,9.664422024296126
19.959470495308494,-2.404099261700227,0.23128711059014234,9.674947803330173
19.976307680700753,-2.5246516594174615,0.26479668345511115,9.645085056947925
19.97948698418628,-1.9273753165462237,0.2768984343288365,9.791072921474127
19.996297973162676,-1.521274581127671,0.26553051849185233,9.654020663321635
19.999503259718136,-1.4360292885759651,0.21661776900435828,9.674464915006915
20.016288473154287,-1.4924015778626234,0.2445329952845221,9.665518800012999
20.01951932295664,-1.3843929311529772,0.219206802430246,9.69731746227038
20.03627924393008,-1.5473343633568626,0.266312261220563,9.683566099154577
20.03953644844459,-1.3405577515353757,0.21148350022543136,9.65068989376398
20.056270616011535,-0.8639975981001139,0.24637753624805767,9.744897116950295
20.059550937908018,-0.7634669585316128,0.20201586663114926,9.744885779281118
20.076261073702117,-0.5463280819508124,0.23391317712794477,9.618811505372452
20.079566478569667,-0.3512406793340492,0.19791552481723318,9.640115907081553
20.096252307991524,-0.09495023340085498,0.26194123308815315,9.646901510939355
20.099581824018987,-0.023963843128232576,0.21529820698417776,9.788506932514169
20.11624372486349,0.2074375308305546,0.20326694867809572,9.693919454659424
20.119596990063204,0.5399937932033008,0.22629392310699978,9.787317193624373
20.136235320944586,0.611829238987224,0.23681796312845452,9.70268574819513
20.139611970754228,1.0375064110983643,0.2140006510593222,9.778414477591307
20.156227160395634,1.4379182553610905,0.2169831591156917,9.631303824267334
20.159627718734825,1.316290045824237,0.23068853374912682,9.766277225689995
20.17621933968038,1.408860695383178,0.19515437313773965,9.758395591928151
20.179641374657017,2.066843685619944,0.27146215839342247,9.753207489649318
20.196211172200925,2.332268524127718,0.22430099449927443,9.79401288812449
20.199655902924132,2.430010461143962,0.20854836245945743,9.8292151417166
20.216203428566995,2.4470276913680835,0.2454940557761851,9.766807100689247
20.21967022608458,2.285415093249666,0.199113784165248,9.738857224971042
20.23619586588954,2.3221373726399515,0.23462086965367282,9.823241211022067
20.239684372419223,2.092244490527089,0.20935593199899502,9.718554390138388
20.256188486578598,1.8349702423177299,0.22753782132778078,9.721645317802075
20.259698299686647,1.4551727869652489,0.23304680751296586,9.6983828082552
20.276181709818673,1.478959229811096,0.24424012314200422,9.800397925805584
20.279714023442946,1.4685147450317875,0.20704760094641303,9.774224899784006
20.296174408492035,1.366332994478872,0.21976025309618338,9.682071653768814
20.299725866877438,1.0043726115056952,0.2520488891509056,9.731211137260553
20.316167195199405,0.6441820091415663,0.18544413002474153,9.69282473078359
20.319739434345202,0.6101587501753267,0.250450258883716,9.790198261941738
20.336160405748657,0.4229241575484583,0.1972052144585174,9.659253054375466
20.339752810673307,0.26296024622363495,0.20978541246846585,9.722959211202252
20.356153782597353,-0.012936465460018167,0.21904044467140327,9.672152954921703
20.35976602520793,-0.10195677886380665,0.26322112092057587,9.753032493666634
20.376147324850358,-0.39370368047290594,0.2022272443073132,9.676204617958932
20.37977905685612,-0.6045580615077745,0.2291233815791305,9.643098946150097
20.396142074928452,-0.8006478270784295,0.21430253750682504,9.721026053956676
20.39979229275345,-1.1808068783266126,0.20334250324527428,9.643108448251317
20.41613466926344,-1.1901686681747354,0.21913616895613328,9.679733955814616
20.419804911683574,-1.5147348929367561,0.18836182523900166,9.601407841492616
20.43612867278368,-1.858328371657106,0.24677381126118617,9.749267119395295
20.439817532854054,-2.279391120570062,0.2600265785785594,9.717911460177152
20.456122786237852,-2.341929971445247,0.23365789887877408,9.652416268794095
20.459830024495346,-2.508742580083539,0.21022696045878428,9.647087696145153
20.47611703641196,-2.5358233197568536,0.249392835220956,9.665943815485287
20.479842374470632,-1.9182512747874478,0.25824380454173557,9.748010801934438
20.496111435569304,-1.6014613823874888,0.22290550587367056,9.640359234920075
20.49985455673034,-1.3983091836303547,0.22272052678616178,9.691907077614538
20.51610703144955,-1.45520381344837,0.22286858661684628,9.664296430826562
20.519866950481596,-1.383971938653554,0.27721733418578937,9.674705327470202
20.536100457339625,-1.5282594200505395,0.24570900913825416,9.658574485872494
20.539878746381003,-1.19435956208059,0.2420920265549813,9.705686774509832
20.556095278981093,-0.8951966039658357,0.25351690180244296,9.759042545822942
20.55989055586915,-0.7340345404947907,0.22727689565116263,9.608692085513454
20.57609019697327,-0.5309378651477048,0.24634934441533488,9.634026503246583
20.579902251101075,-0.3088379891527086,0.19392182561523877,9.76327742984367
20.596085233681542,-0.06401088141524724,0.24729915970954205,9.712146585473569
20.59991382797051,-0.053101260193809986,0.2484602458688655,9.639209769339471
20.616080383791427,0.272250254402088,0.20665164253688695,9.701986179709305
20.619925312067767,0.5370773214991266,0.25738821114452215,9.701671598633107
20.636076300853848,0.8067771724884877,0.1950020900116426,9.723534182502314
20.639936573156284,1.0564980479157353,0.2012015935117081,9.76802127308526
20.656071048976,1.1685459467155601,0.20061302215965282,9.688086198931247
20.659948088015057,1.4778977758076373,0.2332700825734813,9.813698293121766
20.67606712751707,1.6561547490347415,0.1785533553651919,9.737978077247371
20.679958658460038,2.2011303247547933,0.23762583318018468,9.80446956935427
20.696062440650227,2.3283302239356463,0.19587407805948692,9.810109571813703
20.699969699446648,2.418911091781857,0.21923326181343775,9.857407006028074
20.716058164008203,2.4064969437960904,0.23928825829762537,9.739122529666604
20.719980595307057,2.336785857294132,0.2091370561385462,9.700236272945812
20.73605394217554,2.433108050363021,0.2313990542979342,9.75436255910479
20.73999217662642,2.0987633698216843,0.22009185125969058,9.774881510336277
20.756050667744912,1.823071112771347,0.24667553524223568,9.736458343956746
20.760001610615422,1.4979574769739399,0.18972196727534898,9.705867242307958
20.77604640624487,1.4443236513895095,0.21594686359172616,9.824475092541896
20.780012184834746,1.4092036866348385,0.20760921842394564,9.782107915516594
20.79604261298336,1.3224329098658714,0.24384409640827712,9.665781969538823
20.800022575527105,0.8897952510719556,0.21787381054632257,9.756105352201395
20.816038957666315,0.6651218340075333,0.19640313561165995,9.765230798505534
20.820032846876295,0.6105850032173377,0.2646026550618462,9.725140528201731
20.836035407194075,0.4288084809438062,0.1966817374117185,9.653331156818243
20.840043035341946,0.23631431283210638,0.21281032170207576,9.712514081510779
20.85603187806173,-0.06730688796813358,0.22047588113750577,9.749229661799307
20.860053954967793,-0.20362048503693134,0.23347975824315476,9.687896412149348
20.876029935645853,-0.4465839466632638,0.1860714566119248,9.626354234447739
20.880062605112784,-0.6383447028855763,0.23848841348964325,9.691286889955387
20.896025766996775,-0.937757228053431,0.22569211125655372,9.66140905167098
20.90007252364093,-1.210539829343959,0.22441150009428154,9.635264037016716
20.916022643754363,-1.30167724586163,0.23251124680722765,9.649126368086039
20.920082241144783,-1.6307547481283657,0.20191048879613968,9.659153145082811
20.93601966313215,-1.962223588794487,0.2419827164422714,9.690530252260414
20.940091835215053,-2.3087482943785567,0.24473258291847103,9.624076792249353
20.956016796817273,-2.3362471055423835,0.22890285651031048,9.633263309588196
20.96010131844968,-2.6261443000143125,0.20721073486369232,9.61787357774796
20.97601407694752,-2.5510371344145617,0.23297773853035547,9.68586728141903
20.98011222521481,-1.8470302414875346,0.2726278020658928,9.65874268290697
20.996012452954965,-1.4401845215014315,0.23477222125816877,9.62792973671949
21.00011974201821,-1.3264432512633637,0.239114812745265,9.689269550156183
21.016009005944845,-1.3417482231971345,0.23576575877565087,9.667164854704716
21.02012898574418,-1.3159453889462411,0.22151850800584824,9.701452865391671
21.036006542819873,-1.5292173479082054,0.25197619087973455,9.642456670740573
21.040138049561826,-1.256101804771717,0.23442264404478128,9.646707761368166
21.05600421410752,-0.858722069147686,0.25769591186858976,9.73253584753958
21.060146988340044,-0.7038866305632677,0.20161323443196963,9.577577450854388
21.076002016767355,-0.48231817711849906,0.24460384245208883,9.68432000277881
21.080155754833292,-0.30525775744471484,0.19468485273663907,9.679289790091845
21.096000413709362,-0.06546983321658273,0.25127176518391464,9.702259717913543
21.100165828012983,-0.016783564803829098,0.2000720055640717,9.665365266833863
21.11599795840262,0.26117688017121166,0.17989072917189286,9.687260351651483
21.120173331556956,0.5152408807174227,0.2420767030183822,9.732422531736571
21.135995753685602,0.873730866069143,0.2340416014481218,9.646900554979128
21.14018211150351,1.0613631760579558,0.2024455845239872,9.7555872726831
21.155997798198158,1.1094510853720347,0.20876601100671432,9.697127012158678
21.160189958688896,1.5453608534622882,0.19821636061317702,9.808343300698658
21.175992510406875,1.9268884810905438,0.20346249103004607,9.70920172681042
21.18019847325186,2.3476542456475187,0.24138152252744202,9.84097551304354
21.19599083171819,2.3062554040822776,0.18933008711821012,9.804925928412237
21.200206722797166,2.381554340257428,0.22944828850293492,9.84612242458181
21.21599041639697,2.2989792638150814,0.24434239887913434,9.687906864860418
21.220216677630493,2.2786856719763544,0.2142062323638521,9.762998897011437
21.23598811315398,2.5259977899953787,0.24054782480355152,9.859428155860492
21.24022294647136,2.057662572038243,0.21671447905554755,9.692677115707305
21.255986495289637,1.796242431510849,0.22914510617133768,9.770964528729472
21.2602309579888,1.4718588852656054,0.21751871243293092,9.749081014987821
21.2759852339369,1.4874206634487357,0.236657006269976,9.841062564279135
21.28023883364089,1.3870119469599114,0.21871844951759464,9.71138139098091
21.295984084368285,1.2030997437426119,0.20563747255306206,9.676258335897609
21.300246600913102,0.8516674254915284,0.20515337421210686,9.827521521934177
21.31598304946001,0.6530666065907337,0.21773096482543958,9.776163091218264
21.320254228757523,0.5725010744155404,0.2618576918885353,9.72960672908567
21.335983277193186,0.3304649616346287,0.20443349478384304,9.705749370139163
21.340263345329074,0.25231779420544437,0.2126974079140863,9.856709943364956
21.35598163298555,0.004485673127283827,0.2281943975695402,9.685724068047355
21.360269473190172,-0.21757145594668995,0.2101334741729044,9.659101041421035
21.375980308539845,-0.5024753399169258,0.19209972919759816,9.64254757265632
21.380276890286783,-0.7181355649187704,0.2315012232806284,9.709118352345941
21.395979613702718,-1.0455514031324682,0.22548849997276693,9.718695259902384
21.40028421514041,-1.2921275221868733,0.20413222466584863,9.593242806919122
21.41597900116443,-1.2718353416728536,0.23896412040321394,9.701522006456814
21.420291464223567,-1.663033468254197,0.20327679309778146,9.606731395173224
21.435978442154624,-2.0557697119541154,0.24333282135693532,9.65866763780213
21.440298848714747,-2.35953104742837,0.22726534190482706,9.549438641730621
21.455979767075142,-2.3327295892662816,0.24544160330886688,9.681275153542298
21.460306868207496,-2.677578268189475,0.22308820253173847,9.561394849889888
21.475977679227974,-2.4870770749951756,0.2760930625138963,9.572225320963758
21.480312647962158,-1.7188654424889436,0.27991301633460963,9.681333481136502
21.495977440710792,-1.4107672914074034,0.2396220052967706,9.65968157225147
21.500319529522482,-1.4512818892114032,0.19191251442527954,9.618106534462285
21.515977266643528,-1.390197246362364,0.223746936316168,9.621926477564147
21.520326339013305,-1.3900334885688441,0.22957948941357822,9.73129498113242
21.535977164157195,-1.6027376571311711,0.2300529543222584,9.6981984326831
21.54033308712171,-1.2181299835796568,0.26319249920994264,9.704196760142981
21.55597708010488,-0.7892680930737768,0.25460874501805314,9.686988318533032
21.56034053802659,-0.5477245168745573,0.25172625872005183,9.643651856356817
21.575979059781133,-0.40209872178650347,0.22096857202866751,9.685791451396822
21.580347394688214,-0.28708424054284226,0.24003740646850374,9.733439830893525
21.59597742267299,-0.021861197502979324,0.279864464746795,9.771471843517553
21.600352691093686,0.04032163837961608,0.23290020246574736,9.700484332183258
21.615977678735277,0.3713722316939068,0.21226421787058836,9.733505974805615
21.620359076968857,0.5753382528662162,0.23880536343217204,9.666983311299388
21.635978000102465,0.8405866942725982,0.22776725228250677,9.73214027125801
21.640365391783963,1.0984169887718338,0.22044731189897748,9.736118805644201
21.65597839195295,1.310423850576142,0.22875762523383023,9.75297739337006
21.660371643176173,1.6223061123786646,0.184384268094383,9.761415039237503
21.67597882081492,1.8637443488358563,0.1763825286652304,9.747979729489568
21.68037841407742,2.2059492511187644,0.20923708776047165,9.823953844850326
21.695980162349688,2.3014244902375127,0.18151959694834188,9.748692610943568
21.700383733482106,2.324734909705906,0.20966061695222063,9.731760530197363
21.715980151003752,2.2532423173638363,0.20426120507778942,9.670924462529092
21.720389790196734,2.409990229741126,0.20421932152055625,9.890213325508975
21.735980828285072,2.5045953772084877,0.23237426002355832,9.756416231165252
21.7403957445462,1.9973960553225614,0.20329606734204145,9.632973061889322
21.75598157865524,1.7321147278908413,0.2200000733472266,9.767241715795656
21.760401640506366,1.4440961265667733,0.19450926196630017,9.76364643983507
21.775982372116815,1.411100544245807,0.2382638837562737,9.785293940422939
21.78040751827317,1.3439182384202522,0.21277705353867954,9.656157279121015
21.795983120479644,1.2999456290020448,0.24588487173957863,9.752110099992846
21.80041420673803,0.8957105286939225,0.23279971891949208,9.803174011430684
21.81598570970498,0.6631260827904644,0.2298077426094979,9.767263910936972
21.82041921569242,0.5364775357942636,0.2654836184427199,9.747069058314406
21.83598470525402,0.3647696674528963,0.1985124154741302,9.768024211494687
21.84042561659744,0.2328827621052188,0.23969860441319243,9.800349178784206
21.855983845264284,-0.11179185197539147,0.22588758871564327,9.595669772498153
21.860439729971826,-0.23706875196977184,0.20852615449557363,9.710296644173054
21.876000198078227,-0.5537525216238335,0.18087509311574035,9.656284502392825
21.88043034185519,-0.7093062083771522,0.25712757034967265,9.709261063355914
21.89599254538309,-1.0790095869121177,0.21944339689635892,9.646378305492103
21.9004376073003,-1.2677542822264436,0.24401557730953766,9.61501027665966
21.915993612264977,-1.236150379515416,0.2184943091263028,9.674282652861502
21.920444918926275,-1.7785008986480308,0.16223869126350235,9.592247709782683
21.935993946915467,-2.1510476739584066,0.22939412525340225,9.563923910144263
21.940448972406134,-2.4070518931653875,0.24023799305566687,9.539196776380951
21.955995456533028,-2.3706909454283402,0.2487784546360614,9.667414760792322
21.960454084423652,-2.711000528140289,0.212407334692453,9.529980812685466
21.975997073685445,-2.399567729321193,0.25259044263557495,9.66075962136078
21.98045908263071,-1.7455626464081557,0.23904304290406175,9.72203481713141
21.995998804030684,-1.3977503722330609,0.22281691311434373,9.634492583731522
22.000463966437064,-1.3045615564691377,0.21441264975595153,9.655684435758056
22.016000659111302,-1.413379583904826,0.20176709778817384,9.584346344908296
22.020468680076927,-1.4511685860081172,0.24460349472531895,9.786431661051537
22.03600313384287,-1.5402455071802055,0.2281281924160533,9.683006157302893
22.040475025365605,-1.105104688366762,0.26730832889921013,9.684171157830203
22.056004920784094,-0.7547946342344459,0.25037861099068026,9.593945081225618
22.06047826226089,-0.5267316261722065,0.2650414000790967,9.70904605591669
22.076006478833612,-0.38305659128869984,0.21714632959983976,9.70370416088915
22.08048281914953,-0.2643523765441984,0.19735437834328948,9.61340524679427
22.09600863891321,-0.025334207908754507,0.25777476050003134,9.680628931621165
22.100487294030096,0.0891760630985397,0.25163050407402254,9.66443686677733
22.11601087249601,0.4233496704993636,0.22782318261382903,9.810643383468797
22.120491697797494,0.5614270111064169,0.22573488826264296,9.608482860551913
22.136013171526976,0.9297112543067214,0.20699706320326774,9.735551340213654
22.14049606189846,1.1101689744512073,0.23540805967299705,9.793373680211191
22.15601620822319,1.293174971933956,0.22833477193166904,9.677405954395606
22.160500185754998,1.4516325005489112,0.1965943080692361,9.727929554030402
22.176018088909785,1.4202625381714356,0.22076747548565526,9.587956018196492
22.18050438830316,2.8791589637497728,0.26358722898647824,9.735488072149804
22.19602061665784,2.520219650083591,0.15806875190830125,9.783850161782027
22.20050849015689,2.2938397436320654,0.18361304064127465,9.81563227659611
22.21602322505116,2.2146608898019786,0.2411013447774476,9.767484114177838
22.2205125191942,2.34649027874539,0.1934867974837712,9.749287614041764
22.236025898581357,2.462618388325413,0.22541846027305226,9.764098562995878
22.240516497107897,1.9783260260128142,0.1926595737731987,9.639938036736515
22.256028583286493,1.723131057097477,0.21980921419823585,9.86819211538473
22.260520716934412,1.4243210962356714,0.21720471652435888,9.749264104458677
22.27603261265518,1.4111067018314325,0.23545935145785865,9.723750324696537
22.28052384892885,1.3301161371426091,0.2186576351643798,9.657827456857706
22.296034636072374,1.2060492268100902,0.21908462855707383,9.817527369881306
22.30052766696966,0.8335235402207075,0.2453628179736554,9.799763642655233
22.316037589045365,0.7848502888281687,0.2534921650214214,9.771833646580154
22.320531328782042,0.5931730936600401,0.2147710554208568,9.73368443682838
22.336040644725948,0.43854272729835436,0.2165198357570746,9.766852579733134
22.340534906274133,0.13363230473821747,0.23234927205056044,9.736508077795213
22.356043772594692,-0.09243672607513624,0.22866592200641886,9.68190947297436
22.360538428599977,-0.23410348691072233,0.20421443816012175,9.687096041546647
22.37604690584124,-0.5401939809941211,0.1523917506355172,9.576464282421082
22.380542707405013,-0.6942016928235584,0.26410306829383123,9.721084215600417
22.39605197741713,-1.0713008121311065,0.20819900523863424,9.628554489997727
22.40054508873457,-1.2522756778201292,0.2648695288170302,9.660047510396486
22.416053780098775,-1.3174073683632972,0.2062688369559247,9.697425452218601
22.420548299828393,-1.717731119806562,0.24178724911614652,9.635235009352142
22.436057229407712,-2.122203061310908,0.22568181987579067,9.541194074565109
22.44055148765703,-2.470321152783315,0.2594572080506345,9.567249434207218
22.45606075066625,-2.372797971769756,0.24358963610263565,9.716119111872645
22.46055460379065,-2.548243788753845,0.2269863533318079,9.676797406764528
22.476064337152913,-2.245350532797225,0.22016508171324956,9.908912335574621
22.480557670132537,-1.6688996367507765,0.2002990135501397,9.744333254798391
22.496067921795348,-1.2592449508816268,0.2189200780873667,9.731031673010632
22.500561518022316,-1.2831377234884758,0.20369329366129876,9.711019374547382
22.51607315322568,-1.4142226943911003,0.1920914570140259,9.762208491805717
22.52056371445745,-1.4517305147920494,0.24241574042489283,9.825915846330947
22.53607569205902,-1.491995100571568,0.2303998695097989,9.819853741264382
22.54056617308591,-1.0333794283554802,0.195835785448582,9.688236721141068
22.556079624382722,-0.7474558165187478,0.21009331203169188,9.683545820651418
22.560568893505447,-0.3984449546270376,0.23005740823631388,9.739569470363795
22.57608361087907,-0.4052961011189559,0.20438578526450732,9.730471690526247
22.580571542366176,-0.17413032093650332,0.2007089621053798,9.710129018551847
22.59608767159149,-0.06639150666866803,0.22923658058079524,9.689199610800982
22.6005741133829,0.08093663921182771,0.2183978990477071,9.721982251003359
22.616091862767636,0.43141698482566826,0.24384286486567347,9.7751888264719
22.62057818550425,0.599920810283438,0.22245886593828393,9.59031885936093
22.63609702215784,0.9086068527960655,0.23928707191439755,9.669099595197155
22.640578824857734,1.0460809239996143,0.22550988158215723,9.726801974504193
22.65610045728803,1.2760306258882743,0.23317214065668806,9.6856872865957
22.66058125152935,1.5502704893741057,0.19361048422861493,9.669070545467147
22.67610479843654,1.9134940566968703,0.24532079175279392,9.706408887026123
22.680583524427142,2.1807213666521723,0.21914190040966136,9.703223126357836
22.696109247222775,2.252108888633083,0.19270476953422194,9.655600728438012
22.700585699590267,2.3840632622702427,0.2201605527443475,9.791937564016763
22.71611379766569,2.2279936155818176,0.22659564083748382,9.736759726546302
22.720587742387526,2.314599496646853,0.2439576789371997,9.684947227095485
22.7361188538363,2.340824130979782,0.24187389165163908,9.623037262543214
22.740590168214,1.8784861878430112,0.22364737893527975,9.696303481016878
22.75612355197408,1.556278323038433,0.22611520914993505,9.72060586576873
22.760591820481824,1.3893987686539675,0.2824219962465119,9.660766995481552
22.7761277825924,1.345027302983782,0.24781622244356113,9.69744280919914
22.780593703969977,1.3768141455460123,0.21394808946693203,9.586476628150002
22.796132624131566,1.1456596002935353,0.23976413346498285,9.755450377232153
22.800595492295738,0.8070486998859251,0.2538451697875281,9.677759763315317
22.816137549838714,0.7045098404563236,0.2725760517709694,9.741243331997294
22.820597194681977,0.46365927476006863,0.22926763713598894,9.676138254393589
22.836142571388457,0.34043304295968396,0.20251989026835535,9.726189188878497
22.840598762112812,0.06033853610252164,0.21875705763956066,9.575573446176332
22.856148165766328,-0.06625785102370756,0.23790074874152278,9.640909153270444
22.860602255451575,-0.3543462353442074,0.22004630386742785,9.699463559210207
22.87615361159159,-0.5336047634524792,0.21617039496906673,9.655434877952619
22.88060179500263,-0.6939223599314539,0.26210790601042044,9.65328473271463
22.89615803557782,-1.094789416560781,0.1867970940481409,9.675768052743033
22.90060326440432,-1.196024957918107,0.22524728974180977,9.739494845789345
22.916163325159868,-1.3054942538346048,0.21741008711071932,9.687080749355815
22.920604592794962,-1.5764474779033961,0.23386392714216805,9.642595745651318
22.936168716641824,-2.1412208103358172,0.22680137975228265,9.65349179432306
22.940605826176704,-2.261322795187054,0.21969163758891846,9.72506022513225
22.956174207312653,-2.306259069504393,0.19969820863033838,9.75090973185234
22.96060694240484,-2.547149034438417,0.20970968998762757,9.703858461937088
22.976180996409635,-2.203617946841696,0.20829746614499306,9.830768459830791
22.98060950668178,-1.6392421681899667,0.21330391829569978,9.764567747370934
22.996185802186307,-1.1964404259205095,0.21474409903828443,9.743753349688287
23.00060915309747,-1.29266419385343,0.2247027253388103,9.712468233566666
23.016190990699016,-1.2943156220305512,0.225943701158795,9.778099837561355
23.020610091955543,-1.5222728114886943,0.22904847446792453,9.77914933396287
23.036196770264603,-1.4470916128565592,0.23126851741265583,9.817284108410627
23.040610950003,-1.1311666915774834,0.23939839891696993,9.668855115891073
23.0562026137207,-0.6531701860845793,0.22569426189093963,9.75828784176906
23.060611759866315,-0.47607769546478423,0.244699100883007,9.715038986096898
23.0762084618876,-0.4829473272024945,0.17415622756800989,9.682154066682804
23.080612837982702,-0.21612308288883916,0.2463733962885702,9.771531446148346
23.09621561634722,-0.12985879139863007,0.23841249585642324,9.70820395998865
23.100613400151712,0.1493048431253262,0.22768644840755406,9.776732318227515
23.11622160351441,0.36914060522130654,0.2280116188587554,9.679311519120333
23.120613244704792,0.6363660501660553,0.250276879245611,9.693713682155638
23.136227132836453,0.8530486786471168,0.21965834873145942,9.70614084521451
23.140613759895903,1.106442142355886,0.19595062689520124,9.740350010265907
23.156233371115587,1.2502899467249158,0.2340582402600782,9.660951242555816
23.160614138391832,1.5103717507644494,0.18455629328991494,9.67332030022566
23.176239711407803,1.8200615582582351,0.22287222444222926,9.75645130042122
23.180614430413364,1.9671320402089585,0.23383043534860545,9.584341886098692
23.19624611943935,2.705182189733118,0.22087418907582562,9.777786228798794
23.20061433683181,2.396470151950349,0.22956548084882208,9.760491438488378
23.216254181937785,2.140269301542594,0.23851501907614056,9.743033189835048
23.220614741716478,2.22263469892557,0.250378206176815,9.777576976048481
23.236259315769985,2.351018846711601,0.24547194373438672,9.64475733969961
23.240614698760375,1.9268667531601278,0.22678040622231202,9.705150474558355
23.256266018094326,1.6503888550431907,0.25473520322905957,9.72815702468488
23.26061463307378,1.4364906351867082,0.25499659852679424,9.7061313368715
23.276272795249504,1.2950040467396506,0.21939556885288247,9.61106775607217
23.28061449000911,1.3397955255952216,0.2071981967642609,9.640568762411148
23.29627964466817,1.0917455825272353,0.2203322564396728,9.690427115979094
23.30061428942667,0.8471303287574833,0.2976558891405549,9.759616009280192
23.31628650142825,0.6290112254516905,0.2266675666964457,9.730192360987266
23.32061487437283,0.5076149711852663,0.22584950905021117,9.740959574021485
23.336294177335002,0.38245368030113336,0.20992259736853602,9.681902361114195
23.340613265258543,0.11297639093013723,0.21815795930690496,9.618950212335191
23.3563009742335,-0.014585712305285329,0.23475754820659775,9.626588243898135
23.36061283936795,-0.2978970076938679,0.21152872240321996,9.686723931438767
23.376308163563568,-0.4571816436512012,0.2029530905046062,9.690331535805718
23.38061225950314,-0.6978805498025205,0.2655681601199148,9.655052849573215
23.396315470345122,-0.9733417132865506,0.2118079353325612,9.735900422255984
23.400611572451652,-1.2252670259723841,0.24550944141556547,9.75553280186567
23.416322883843335,-1.2601522352035472,0.22085269365985497,9.674522139604182
23.420610766102932,-1.587727335676012,0.18648848045603142,9.699388546734388
23.43633050961717,-2.040210720921388,0.20801787831277652,9.699358367885488
23.44061117183122,-2.1718236180090957,0.24818292155927413,9.75119068225579
23.45633847530743,-2.337974691309744,0.22205647760889985,9.751042732958647
23.46060896856433,-2.4994256829316726,0.2203400447815778,9.746064587484968
23.476345617264222,-2.2914829890030126,0.2238871975665817,9.68638219003734
23.48060793617307,-1.6361224483193393,0.2051736636641636,9.836305321234963
23.496353385309074,-1.267321119032301,0.21898699645129488,9.765428215143821
23.500606790055002,-1.224581858849794,0.22085413909008683,9.722380860090874
23.516361251666048,-1.3175864430782718,0.2179988093447166,9.712835688120943
23.52060554842045,-1.5071192136058407,0.23881510348039167,9.75088186721173
23.53636921299524,-1.4591167997011478,0.2338736993128386,9.781130237300392
23.540604211719042,-1.1687247570723474,0.22236930673844826,9.639693606365075
23.556377269735147,-0.7561441949857579,0.23537520072147772,9.8184552740781
23.56060277912441,-0.6224322213255318,0.2229103620524923,9.7046923751843
23.57638542296608,-0.4110431924774681,0.20138835143956207,9.711647992004034
23.580601249308465,-0.22386988189303655,0.20710290226826855,9.687417277339366
23.596393674332642,-0.109189386847206,0.23484532865262803,9.729819751313094
23.600599620158533,0.023089887311797147,0.20804874743634535,9.760402420782734
23.61640202670533,0.334500533189933,0.18971953147768048,9.682473776240409
23.62059788747636,0.658195368186478,0.2374853803681462,9.715439194323338
23.636410486826183,0.8489987010133335,0.21473147918633498,9.729336306185399
23.640596039035795,1.1311739248197097,0.23900280163221024,9.804614322253665
23.656419081027632,1.2201549971459171,0.23753059530606913,9.64627186063435
23.66059399862494,1.5224036810812245,0.19544230080123348,9.736404675679282
23.676428381489895,1.7617090289721231,0.21873077041579986,9.791581446553966
23.680592939895778,2.2128927408317844,0.2528503239012384,9.724587535310668
23.69643610519222,2.295661820812882,0.24272314193596012,9.684967227462092
23.70059022133539,2.3250761325242273,0.24842560632469246,9.703711805476294
23.716445064764205,2.2652396177169964,0.24090930184177006,9.765653198033855
23.720587950224747,2.265030423758337,0.23479203639771887,9.67303933951088
23.73645403526248,2.301233592969518,0.2659370804652395,9.734212883625847
23.74058561186099,1.848966174447818,0.2415055581019169,9.59239231643596
23.7564630917048,1.663301234879606,0.26403479123012197,9.748060225073068
23.76058317798883,1.3705793089169929,0.24222639667049206,9.618672413660835
23.776472251924066,1.3300096128130972,0.25609527847410835,9.650009924457997
23.78058062890612,1.3141274515797776,0.20652678648025904,9.637543993010743
23.79648272128612,1.0741557315045478,0.21442275185509085,9.678200061378641
23.800579193508266,0.7925216496620904,0.23188453262085576,9.59993895627618
23.81649164851326,0.7043066324809177,0.21149527633164408,9.651418155528571
23.82057520214731,0.6043629075584346,0.22975868620879514,9.7003593420257
23.836500339175203,0.3492631090820511,0.21228585761807295,9.68895445780683
23.840572435254217,0.1944859432536093,0.20255613379421616,9.612567424261819
23.85650987388514,0.009295483841268557,0.23510670593512548,9.5988301150132
23.860569509980255,-0.20085919329458,0.21759645944100406,9.793831593048592
23.876519524256583,-0.5194812543785617,0.19302599023681255,9.66342079816464
23.880566488312663,-0.5694751945911192,0.2678216079291662,9.664390653261323
23.896529235620143,-0.9378778374300715,0.1942452312565549,9.737257763428266
23.900563652204507,-1.2080623430093245,0.23982297126360927,9.723995275288091
23.916540767144255,-1.2369272380765048,0.24065398009688005,9.731518258490476
23.920560005044035,-1.4341683250057504,0.20814758412558143,9.672397313510624
23.93654925870232,-1.8825499215690198,0.2042274619953206,9.731832515785275
23.940556588071736,-2.2339743369688034,0.23299237122425018,9.743438774511777
23.956559361829704,-2.2945625598302484,0.21623915119421322,9.803364604052557
23.960553104357373,-2.5200837894937638,0.20299980884603544,9.689910467000933
23.976569572067447,-2.3861102749589427,0.23637534838675,9.842807164366935
23.980549513985924,-1.8074555742623206,0.2389202980979458,9.767640196638268
23.99657988269258,-1.3570413725193797,0.2254849894921086,9.747484495264558
24.000545837868565,-1.280897297291925,0.20230337383236746,9.708319031135547
24.016590235251428,-1.3073230150998447,0.19362812550611996,9.744415897875207
24.020542405029794,-1.443956433214039,0.22560994574992127,9.722007272267199
24.036601947108505,-1.493566838427892,0.23861975040537425,9.720312166685996
24.040537800070453,-1.1053448905932024,0.20021984527242706,9.64200386387774
24.056612420215174,-0.7986948956398245,0.21632588079726695,9.801434695507988
24.06053368099457,-0.6080118134270844,0.19566750358178242,9.691999757829056
24.076622606541658,-0.4343860822232963,0.22686560585228766,9.68058291086218
24.080529559825422,-0.24768757325961283,0.1807548499923757,9.791671799384286
24.096633493676148,-0.1571572885689883,0.24279785953298738,9.741392331818679
24.100525276283044,-0.05497039845002566,0.21371211159177597,9.605487243309184
24.11664450669042,0.3175037598921322,0.21173205001158688,9.783105138115832
24.120520893332202,0.5419925237733344,0.1898524987159235,9.592927258457612
24.136655558646666,0.865398155270125,0.2270936234417441,9.886529996642544
24.140517323694965,1.0735522854791648,0.2346618750193583,9.657528679013664
24.15666811061843,1.2099961447321566,0.24376209985480132,9.760104936116276
24.160511273261406,1.3678469884482933,0.2228329538705847,9.689060824190808
24.176678650278177,1.7434546077938795,0.22356043707972292,9.828694066016501
24.180506571899326,2.0874259667227175,0.2581276499844273,9.693893191074942
24.196690161105295,2.257995031306313,0.21087109967118697,9.736043152111357
24.200501641158873,2.337391967676288,0.2589138323068137,9.627233258091563
24.21670184492687,2.2786456608973364,0.21437792776241668,9.796295582505687
24.22049655092293,2.23908186279574,0.2156267001526838,9.603379761104714
24.236713689782412,2.167836656498845,0.24023444477531172,9.651134754411217
24.24049127951552,1.9127187118222824,0.22535458709201697,9.582402740716269
24.25672583372074,1.6359180127802964,0.1991018727482303,9.851626539728082
24.260487101202145,1.3636486692269292,0.25290796929236103,9.449811699267872
24.276738920349835,1.4287349589099925,0.24119539150576838,9.904609249680536
24.28048191275821,0.6923999460286888,0.17607328086033974,9.168079269904831
24.296749679485465,1.1211886565300893,0.16740636270890374,10.344007458840181
24.30047508533605,0.5486784214149387,0.37429032720155947,6.551515535290988
24.3167621245733,0.7257758343202233,0.35506898344338783,7.328715098050811
24.320469286585976,0.6238834548637568,0.203733361786184,9.932425647849518
24.336774646636165,0.45687907282599566,0.2487159754239146,9.443417071546623
24.340463378011485,0.2386067052508508,0.2115260454762935,9.835931770965981
24.356787286745366,0.045807063874184345,0.2695768370858618,9.582998259647313
24.360457363138387,-0.10183572568904856,0.2320239297195752,9.896160670682386
24.376799737550165,-0.3989080072918255,0.1973812285367565,9.55045366744513
24.38045213698037,-0.5434100681454387,0.24973177072969938,9.810354278874817
24.39681365706126,-0.8440078614251104,0.23229550820778458,9.656527442667091
24.40044470070028,-1.1581607820379258,0.2374200824060239,9.843218181267195
24.416826172312852,-1.2542947960081876,0.23233555864305322,9.655411460597614
24.420438262349496,-1.2905169064528539,0.22346254106700902,9.813450533182127
24.436839384760077,-1.9239568477496012,0.20698049231355045,9.534292116064398
24.4404316375025,-2.203468235224145,0.22698828750668537,9.78037065566993
24.45685276394154,-2.345796570912103,0.2250789026835397,9.648653732384085
24.460424846373147,-2.4791298876369354,0.2078094715900698,9.708022743518356
24.476866320002117,-2.4561131736072856,0.20922087112736515,9.639084707553772
24.48041783497185,-1.881489833015181,0.18780243573093738,9.798745736864484
24.496880581169556,-1.460037341603257,0.19743022351503278,9.669021487738531
24.50041262896567,-1.4040342127940337,0.18503165604410346,9.645226272884765
24.51689397336064,-1.3107197833594062,0.22205588374623983,9.647044495400609
24.520403605300316,-1.4761461604553123,0.19743900289971578,9.722035017074417
24.536907771331077,-1.433592493576152,0.21716231681701706,9.75487475885114
24.540396228230414,-1.1972562765229748,0.21734372889586262,9.67138954714242
24.556921921808918,-0.833614730456856,0.22200463676161147,9.653221778968986
24.56038866247407,-0.5776249960498716,0.26041001964115795,9.81251757612447
24.576936245607303,-0.4199874079972507,0.21940448387973166,9.645094539376226
24.5803809233467,-0.1659194930660402,0.19670556811060305,9.751618337641213
24.596950749701577,-0.11493785786360754,0.22058458083907534,9.707407198707877
24.600372988960928,0.05355369376737593,0.23666235669177876,9.774350093464085
24.616966702070453,0.18829060228148162,0.21258905560210115,9.652211824878915
24.6203657724667,0.5087712077474866,0.23827203575450975,9.775896210570252
24.636980546741363,0.7994015102870412,0.23403876894243952,9.719333505616989
24.640356905570265,1.1390550756685658,0.23333660821317592,9.803942641541765
24.65699571878122,1.1730839729863214,0.25186718061979796,9.665341022857156
24.660348338143564,1.3466337608545518,0.23132071525672773,9.779120816960093
24.677010316131444,1.6709858437744975,0.22372051340768323,9.776787747114547
24.6803398103841,1.9562458703639607,0.24171455304664072,9.693601908811255
24.697025624801682,2.2804631016254437,0.21808671641422317,9.65302997695096
24.70033109111141,2.2614555550494315,0.21365512187768987,9.7445512178452
24.71704106880815,2.266948802357563,0.20981418955225617,9.70327965757794
24.72032250152236,2.149965029508302,0.23862726382964788,9.667355499177482
24.737058409572082,2.20394664696363,0.25535909261225576,9.592113161799029
24.740312967602605,2.017782460080106,0.24618521981864694,9.711312337649744
24.757072799631082,1.681488170139405,0.24043600108044844,9.698236060779397
24.760303640267114,1.505715724838187,0.23719272745923425,9.704176781474278
24.77708885976148,1.3958531862745536,0.26209512448576433,9.599301396536223
24.78029415864765,1.4466332930480763,0.2071511173557586,9.739176351597813
24.797105108679343,1.0898430762640012,0.20243044176424033,9.585055936721421
24.800284487932913,0.8942350575824816,0.24094092769724634,9.767831274346355
24.817121543034727,0.7816286645478732,0.2548439869966297,9.673175873988308
24.82027464142919,0.7091232241617175,0.24268488953143086,9.775970398838137
24.837138119952826,0.4747175030617513,0.24799573242656303,9.719915594003394
24.84026491380004,0.2883590062585289,0.20192336168595262,9.725407946335027
24.85715660958718,0.10678578411209555,0.22552741051992278,9.707995676126197
24.86025421666205,-0.13855985713788632,0.2553266139851518,9.756939247715223
24.877172167670007,-0.3444818961826393,0.20585831241832717,9.69108890196211
24.880243716622537,-0.614424672130067,0.24784870560843175,9.573034350991332
24.897189410093407,-0.8315284625555355,0.2210589857278304,9.775329554114371
24.900233044251895,-1.1936488682902868,0.20520099076314297,9.71465058757637
24.917206857628837,-1.2700133179815993,0.23272897195943823,9.693245823269763
24.92022216800235,-1.3771443472932472,0.22996299696591774,9.715209559055232
24.93722450247978,-1.8455570666369157,0.1642282463406436,9.694932988099326
24.94021111085692,-2.1506292569003427,0.1970948674778084,9.751418391861224
24.95724227356533,-2.3648872043583795,0.20666308952330678,9.66900693575896
24.960200802455855,-2.484924796979216,0.2062687804823968,9.693556065129684
24.977261607254047,-2.558806694466298,0.21765166331020355,9.694373108004827
24.980187874307845,-1.8389346579110912,0.23746153698481526,9.757319606983108
24.997279073757642,-1.5057702498302403,0.1970903903649368,9.679085168452263
25.00017622225351,-1.3284471224583356,0.17037543919759743,9.669234501791335
25.01729758394218,-1.3914040483712753,0.21016903754570865,9.720440960199515
25.02016424308409,-1.3810566814671164,0.20980302385374056,9.703832736981672
25.037316365696043,-1.4441580049256757,0.21652988127774525,9.740884742715751
25.04015200501968,-1.2391641203253931,0.19674340337347979,9.73472619405118
25.057335408737455,-0.8216911278619002,0.24411045020725244,9.775891467312789
25.06013948365623,-0.6737737903572878,0.19738745181724998,9.758259813102939
25.07735486717529,-0.45492294509909575,0.22224173882896153,9.712445147482333
25.080127392480872,-0.23322303338095787,0.20985398539227149,9.725555288861928
25.097373969224034,-0.06512879053387617,0.244084628282341,9.754990377614483
25.10011400745236,0.05314052267634117,0.23778293320287422,9.78187693640302
25.117393794247835,0.2697436177794318,0.22897722374579058,9.783773314581692
25.120100773697736,0.4707254098790473,0.20570610078130747,9.74614211023197
25.13741381076829,0.6828988627997078,0.21441168599975363,9.672965327591282
25.140087310126404,1.0669149362801311,0.23334283467249262,9.68280040399136
25.157434069781907,1.157323440656984,0.23905595091596876,9.675544910003493
25.16007359767796,1.3846821956807038,0.22872429710907197,9.691836318084187
25.1774545827594,1.604063596579672,0.1934061567945028,9.783954932957679
25.180059620544334,1.999431333115334,0.23746568526768944,9.74005254498087
25.197475447608436,2.22800797081112,0.22010311811147726,9.60596897669993
25.200046449957128,2.217706798593358,0.22989733554946232,9.73636512809524
25.21749716709681,2.231027860154607,0.25612610582070494,9.644109711100777
25.220031111385246,2.370043537226892,0.245769053419102,9.71973494296889
25.237518224923615,2.1292043680522363,0.22099754167997834,9.644984770759963
25.240015841110992,1.8826258810537255,0.24995957216858644,9.612910930531601
25.257539518132713,1.6955143679997546,0.2397782998929124,9.750892203145764
25.260000850577462,1.4669499127669605,0.2208755376484077,9.609545260575032
25.277561371881333,1.4519258414157796,0.26647642875925576,9.702983797287752
25.279985500141454,1.439990569196821,0.18511586160811583,9.66408897544934
25.29758356581474,1.250201157318225,0.2341432778449178,9.641233891831725
25.299969772103697,0.9396582713598828,0.24225864861871643,9.690671831786007
25.317606650147315,0.76270903960175,0.2502057493457057,9.707347464335005
25.31995510242559,0.6818257344067595,0.2297531852672535,9.73790883259144
25.337628862374988,0.5046616369530942,0.25009916535647486,9.703453702255826
25.33993772774436,0.32853982262223835,0.20998326630037936,9.682606849367525
25.35765177508968,0.04129254154838744,0.23507555037655425,9.6611167095491
25.359921186792107,-0.015358937803355928,0.25930977627004925,9.776964211378894
25.377675160636908,-0.3671793905710099,0.1896066888132148,9.709644139353744
25.379904310468095,-0.5480834970366212,0.22429116945213579,9.58664220771999
25.397698872639968,-0.7718768874206237,0.24215936278676234,9.751520134565753
25.399887103950224,-1.1882988252015432,0.18762214549315304,9.66571672853707
25.417722924404114,-1.2946980755547464,0.2329645857905942,9.693822644388089
25.419869543509567,-1.3584300049210576,0.21511886432144717,9.653077880997285
25.43774861356764,-1.8222584741333414,0.17277409000476968,9.690323034088838
25.43985302843142,-2.2166618850479582,0.1876074273220068,9.704493763596492
25.457771758039687,-2.293645176688767,0.20810251791522008,9.63095997204361
25.459833689503,-2.4766852370350274,0.1749999947881824,9.68451932456847
25.477796868008998,-2.4556038176424906,0.22350961292533073,9.662821035740837
25.479815119727125,-1.9262826995075726,0.2227560978063927,9.746424842784252
25.49782227024268,-1.4920550689084662,0.1869339148007342,9.639518098687383
25.499796219535803,-1.302005908968773,0.21703872721469075,9.724720598574347
25.517848018069635,-1.3034314734161454,0.22283389890359168,9.678320701912641
25.519776964971037,-1.3489692218585547,0.21116860259699752,9.862379280637407
25.537874126108726,-1.5033589979643016,0.22983212227099203,9.669259376269146
25.539757356527844,-1.1366096334669342,0.24393342140299842,9.758212042837696
25.557901750519754,-0.8876200603673746,0.2236618101831083,9.762147198949325
25.559737476477697,-0.5985260118599741,0.2285118819087999,9.749852168263807
25.577927400943835,-0.5106724971485183,0.2075032437034616,9.679343855931805
25.57971702281475,-0.2817046162306742,0.1984580515133515,9.715948917183676
25.597954658254316,-0.11313626518511981,0.2466681520819362,9.854919757902845
25.599696254206833,-0.09083662836391054,0.19740527025838567,9.665194428532269
25.61798229191486,0.26332610773312604,0.21299677715224066,9.65929325588205
25.61967509617188,0.5038016154350496,0.23579105471630168,9.66770161033018
25.638010320677378,0.7662579440608877,0.22984507794930611,9.756415181604815
25.63965354112384,1.026569762176389,0.19338589588145821,9.662657320987343
25.6580387413431,1.0999623790588897,0.22920615976439357,9.718213946813968
25.65963163533858,1.3179341228377095,0.2354350030681032,9.675910971335952
25.67806825701994,1.648998154377933,0.16598258384953155,9.768135837167758
25.67960903884515,2.0531240169028995,0.24862543219003186,9.699639030138878
25.69809699397006,2.220516029052034,0.21636541044394303,9.696246493771337
25.699586251554724,2.3548050003762766,0.21065960421058372,9.78919628419833
25.718126702602916,2.2488854343299214,0.21695410099023674,9.602310540038065
25.71956298526468,2.2694858760505734,0.23158666683279902,9.71186991968591
25.73815686700606,2.1136709261965767,0.2335031859835116,9.639369705866663
25.739539269020188,2.0233478449457882,0.24614214383072366,9.691507805764378
25.758187476256822,1.698689290127101,0.22882410384490096,9.669666226341954
25.759515121339852,1.4897446500641742,0.2059346578969241,9.710313203896426
25.77821846662902,1.450395092791538,0.2747361683342054,9.731846048355306
25.779491490108917,1.3936345342805763,0.18745466295022514,9.692491125946052
25.79825125009803,1.2564355136966288,0.22047085832974286,9.663154239674352
25.799464930375013,0.9097882189371603,0.23009392428972497,9.6110760058337
25.818282485134706,0.8407536082525493,0.2455371919613937,9.726576831398054
25.819439397624468,0.6552134116820498,0.2501835986969062,9.78047889874534
25.83831501363672,0.48559429004804666,0.2321460465375217,9.686165269268542
25.839413261023086,0.29553902016536737,0.22794862963700196,9.684697942894784
25.85834809309,0.008080527342802405,0.20851604080482594,9.639727959286898
25.859386584585295,-0.12419885680239819,0.26632562327480114,9.726837726984545
25.878381713751498,-0.4155983569318414,0.20931241723695468,9.639362501310686
25.879359353219193,-0.530598579314621,0.2504821949656359,9.698968774552752
25.898415987042565,-0.8446062782093098,0.2082013516136809,9.757441809355877
25.899333197391595,-1.1556353565393533,0.22900086256658767,9.654109385103986
25.918451679904905,-1.3018892074406052,0.22259402320368402,9.657264287080697
25.919303670560748,-1.3896576250595238,0.212428949579494,9.69132197001977
25.93848577055822,-1.8401408300957163,0.20724650651380605,9.693002039991832
25.939274457412104,-2.211656950719033,0.19999905605638915,9.711127694635927
25.958521655578945,-2.2789624028707682,0.23142107792919872,9.713168052763876
25.959244978961983,-2.509400840351909,0.18480743473042271,9.652933730413942
25.9785580934401,-2.4439632258158213,0.2370815824332059,9.740113525479277
25.979214919493014,-1.8861436804451488,0.20589980105104688,9.725999965321684
25.998595122884648,-1.4276324845142179,0.19663437155883748,9.716543909687877
25.999184257372573,-1.3360225073394354,0.20324691233268677,9.748797714059814
26.01863283785754,-1.3028133228972476,0.2453318536420485,9.730405554094661
26.019154690772915,-1.4140778271836576,0.21901837648012637,9.735930582986184
26.038671736880097,-1.4738774943647255,0.20638900764213905,9.698266215940562
26.039121459844235,-1.1200510989088674,0.2031018231668496,9.78170258696496
26.058714507615733,-0.8633171069087707,0.2590762802322313,9.728493090459905
26.05908752968178,-0.6544133361817261,0.2338370122337349,9.741911414425404
26.078750239478374,-0.5335060969790657,0.2561715599094533,9.643863533954585
26.07905459858812,-0.2330861270579984,0.19869413385786738,9.793543297609162
26.098790417294836,-0.14695682311939773,0.24002880837243906,9.716118211263364
26.099020665229265,-0.07016109115944574,0.23824928437650936,9.752985938100291
26.118831424241957,0.24260569736591256,0.21415931957692447,9.671034065992014
26.118985905925534,0.46125115395253563,0.20338001833288832,9.762092895813627
26.138873760270215,0.7435125284833176,0.2513138174859839,9.710835462120242
26.13895241760865,1.0480406063619556,0.21293619902429087,9.655722783749
26.158916370966423,1.1352046077291575,0.2266131786155556,9.7092043566456
26.158914261210708,1.344695389924642,0.2367098796863236,9.748370006901306
26.17895891531351,1.6997534158160483,0.1696627202408177,9.829375723148692
26.17887735049087,2.020634582190838,0.23673179792453486,9.660213570445997
26.19900294390913,2.2531598838355515,0.2390978547819274,9.681429438168148
26.198839577081916,2.3378682327991283,0.21206942521313565,9.760090595608695
26.219047804578775,2.295840668691967,0.20713149418983612,9.691109965852547
26.218800969763166,2.209724037717238,0.2377916654005514,9.718319464998322
26.239093508630432,2.084730905770735,0.23485734269246217,9.706270048871197
26.238761518323965,2.144910825224117,0.24354498933872684,9.798974097016439
26.259141260936616,1.8097967605554768,0.22566250839689875,9.656863885480629
26.258721173125657,1.5997184619212879,0.2172837251016222,9.689858000458987
26.279188203542137,1.427103441571701,0.23350621995070422,9.74696343014914
26.27868080072774,1.3930829351915448,0.2309837910297969,9.674007826719542
26.299235475257685,1.2070541149888656,0.25779881862521,9.63631098453191
26.29863814267181,0.863654843380462,0.22936760604994563,9.6575314177734
26.31928484289951,0.8333885701299857,0.2519286202815629,9.750621582287334
26.318595037512587,0.6548813983450196,0.24743085268688497,9.697909925267075
26.339335079437173,0.521515487458664,0.23023030932811941,9.663471120812982
26.338550992664924,0.2422770042659133,0.21712300217476835,9.713678128688311
26.359386293386276,0.08263875404429025,0.23209662176868906,9.7269920301634
26.358505942264824,-0.1720558910041808,0.23728228872395926,9.683654421061679
26.379439846820077,-0.4259597427303835,0.1976109468831595,9.597326951024552
26.378461207160196,-0.5640995995584154,0.2572032501461261,9.719381326188714
26.399491499197275,-0.8777558556089816,0.213269678551598,9.71396019382107
26.398413001954754,-1.190679997933382,0.2040467427287574,9.73185272190941
26.41954587311147,-1.3205562895664005,0.189131130980504,9.680357775250663
26.418364799857752,-1.4079913612881187,0.2052806198741806,9.687423724737545
26.439601283602563,-1.9040013954361978,0.18713786268948504,9.694334270627463
26.43831551056874,-2.240286643241064,0.25460052945978334,9.735242996900208
26.459657803848987,-2.3515329932874396,0.21718783909031444,9.580689759865914
26.458265104069643,-2.5174608213064755,0.2021865493199807,9.656372522435381
26.479715414969377,-2.4281210857301834,0.21963549806866506,9.734072683877546
26.478213913484836,-1.8233618912921425,0.19245545496781383,9.74504266591089
26.499775468236937,-1.3855577663118845,0.22425174645840226,9.724662879077977
26.4981602611452,-1.3791841343867268,0.17975717184489173,9.724673477806174
26.519834826784443,-1.3656393947037506,0.23456155426005185,9.741829095965983
26.51810624523008,-1.4682361666358252,0.1906813236580529,9.711368655533015
26.539896231516572,-1.4717258566784992,0.1962550114048349,9.756111111629128
26.538050830866876,-1.1298521858287376,0.25012582982361103,9.741778994468971
26.559958997389952,-0.7633707790255843,0.22776389570786362,9.721207767321873
26.557994053581567,-0.5990853614545105,0.22592092229206584,9.697462407411104
26.5800231357545,-0.48079682594457596,0.24097235989433857,9.686468635370368
26.577935897907167,-0.15645684074438038,0.209272450776088,9.77430768613655
26.60008862878833,-0.10188478158806505,0.23195980113688394,9.66571751733562
26.597877268182387,0.12317899221121573,0.23427351414257064,9.704357827910938
26.620157063708994,0.25361492511676786,0.217814492718286,9.689800003785058
26.617815324014387,0.4355476418894807,0.24580870315079603,9.69863083080551
26.640224385986997,0.6791525317352851,0.25155855733951443,9.70268517932729
26.63775236165189,1.0878895358391518,0.21874428951252256,9.708747159094568
26.66029454526576,1.2768017406708088,0.22790593097059839,9.750786420565147
26.657688090660375,1.4785504247001011,0.2358638121299126,9.718611048928066
26.68036630088164,1.7473312249853823,0.22238799157723363,9.792915775816658
26.677622179945455,1.9846732221808114,0.24475909700108778,9.721791665432324
26.700439722098654,2.3040542478113526,0.21133136092044214,9.704507931515995
26.697554588034244,2.2985553771640648,0.2400531921409659,9.731843716788688
26.720514808134837,2.371503601940864,0.19598191393411563,9.66141144987903
26.717486205622137,2.2152116013628884,0.22068430921640173,9.628214441090439
26.740593436179566,2.207277662702623,0.21241881274177998,9.63167313493735
26.73741391384334,2.0476714805447673,0.22728547151243664,9.724406939128194
26.760671463953354,1.632668711797109,0.22237043485170493,9.607074622964694
26.75734058453588,1.5411396586161097,0.23844928336142382,9.722319818771062
26.78075166167823,1.3721601323415105,0.24808112361960227,9.715849069787867
26.777265583047715,1.428459488028892,0.2305818096829383,9.653398451833683
26.800834362406206,1.1610430840615642,0.23774624456097734,9.690080400787727
26.797188543425445,0.8539224095443977,0.2661084418262799,9.743434509264686
26.82091908105193,0.7816384790823007,0.2620415094255157,9.754312480342548
26.817109497066138,0.6777949534163455,0.24129439676196035,9.744203449805804
26.841005853544655,0.4287953526948633,0.2408478439461511,9.715817449169554
26.837030131885708,0.12688940548248265,0.23333516503503707,9.749126027432155
26.861092648332868,-0.08621373893140351,0.26913635326134994,9.77305797742273
26.856955689688263,-0.42199398750505324,0.1951132639993336,9.649321048619164
26.88119770467238,-0.6860751479924379,0.16815466457578304,9.635868634054638
26.87685317859044,-0.921219789225876,0.23793761572409278,9.74722022758159
26.901284614362268,-1.1864685285823715,0.23728776026790518,9.673996414829984
26.896766287254618,-1.2429169293348894,0.22246079254391687,9.726670871143373
26.921380470163978,-1.4535945783581676,0.22612861003989246,9.598339426097047
26.916675408167198,-1.832957459799195,0.20957342960760117,9.745177161992151
26.9414795632439,-2.1570601638991818,0.2049549794259117,9.68555439718284
26.93658145548763,-2.182250719680349,0.20900078093352165,9.663927448415691
26.96158223975088,-2.302899779976469,0.20847346787631527,9.601535228541682
26.956486263105315,-2.3438888458432467,0.20040968400133755,9.721129015742815
26.9816867719083,-1.853577371654977,0.2192548673556815,9.769483046326226
26.976385123841688,-1.2656726359110804,0.1856590884309381,9.724624498060658
27.001794303646435,-0.9525869462042739,0.1880506253145856,9.714232684455784
26.996282268500273,-1.1398991826118507,0.20229264707720115,9.674224751191852
27.021905438435205,-1.133237667769436,0.2362184403471614,9.712992371208673
27.01617617710451,-1.162304735361317,0.15939114263415965,9.680424359236463
27.04201986517611,-0.8390062849001495,0.2265915647428622,9.779467572429686
27.036066721504653,-0.5390356087086974,0.2426644795196029,9.758932788980015
27.062137735479595,-0.30554268281920466,0.24495298703819685,9.673149699606617
27.055953742578584,-0.1904433418743085,0.24076644064037156,9.778458307990682
27.08226055456545,-0.03157107695407887,0.19133045601014653,9.68859806814436
27.075837787008062,0.16979384410700182,0.2498146618989623,9.822079895427937
27.10238410907541,0.12120930998318347,0.2160946664987395,9.628178306078283
27.095716874330318,0.2464154373975048,0.21455737706051115,9.649665379623862
27.122513301618387,0.5337495863364523,0.21333791516373043,9.732199220946791
27.11559237414457,0.8439889806423673,0.24372258403264013,9.764127514057376
27.142646536777953,0.9391571141310974,0.2145356220132109,9.679451236493783
27.135463688305133,1.1518431408337924,0.22250891945091536,9.730313742399604
27.162784074224334,1.383882912845409,0.23294442694613704,9.750623738124784
27.15533058655005,1.5122371855340875,0.2052005530940841,9.659412707787974
27.182926144650306,1.4295496214133727,0.22445434543598067,9.658652350707266
27.175192835453828,1.3747661407053673,0.18897939724729682,9.708310354385114
27.203074331883947,1.4235653173907206,0.21775187588089237,9.715184993246176
27.19505089711143,1.433644615179848,0.22191960343911968,9.630992426777876
27.22322449474693,1.509383737450864,0.2475361411904819,9.751911525912387
27.214902725290173,1.5984195472832188,0.24510312167924264,9.79146394883432
27.243381623824938,1.334076677477427,0.2547439828630987,9.639714212156555
27.234749591211163,0.9098279265250765,0.23074746355924194,9.674443760464408
27.263544213001072,0.8545343747508596,0.23004854642434105,9.64897677652107
27.2545908080748,0.8179745758163796,0.21840137028007134,9.82653683912609
27.283712613571872,0.6163647673117382,0.2070796418821065,9.615739184130453
27.2744260585552,0.5995100867154695,0.23485107931548016,9.688826407579635
27.303887116230815,0.4640401902560539,0.23865116797680339,9.721038238401798
27.29425531969439,0.30094314654373777,0.2424050035140038,9.756205526642878
27.32407002826145,0.17542971353206768,0.2536972155284721,9.721364617563083
27.314077618568394,-0.00854619201488273,0.20917310274837245,9.681485163839922
27.344256063922387,-0.06734730582025372,0.2225100083592299,9.76814154537637
27.33389240081665,-0.28770704454580265,0.20664625424112384,9.738890836253146
27.36445130081249,-0.3515090735375702,0.25594128116586873,9.673471744888237
27.353700083604124,-0.47066821950851195,0.23373272252122426,9.693200876244413
27.38465418097846,-0.5554696018582946,0.2405099069773132,9.750593244800497
27.373499863444067,-0.6991867675128415,0.24538218480136997,9.760000097270382
27.40486520552288,-0.7300865237201315,0.2135841311763022,9.672686989125808
27.3932912611155,-0.7487233946894124,0.25445250384803064,9.711819396393219
27.425084828213567,-0.9587195650189504,0.17850296842851526,9.607807526158773
27.413074715225545,-0.8613975472480458,0.2210739091441587,9.768208223692767
27.445315409965353,-0.9901498424131614,0.22707542817241322,9.602286457699321
27.432846458620645,-1.142401818507814,0.21022706144812642,9.685003373236157
27.465552698761776,-1.025440064244931,0.22783396366470962,9.732382941276391
27.452609264548887,-0.6533107438016064,0.21511447879053236,9.727299748716433
27.48580186959948,-0.3932433293183249,0.2034633546629156,9.653920004307764
27.472361272665744,-0.2987212132854234,0.1725285646634514,9.675244202231415
27.506062208100992,-0.335971740213984,0.23660904243975575,9.740146672655028
27.492101742846806,-0.46238217914917357,0.21178477019800698,9.688072657361017
27.526334470462725,-0.3522609122127255,0.2596967747931993,9.671372369190133
27.51182989115678,-0.33286894629028824,0.17929206123947167,9.660344205436576
27.546619445115113,-0.006804133676664832,0.2336862303723622,9.796531215037211
27.53154577802142,0.029611620930139596,0.19955386278445678,9.680544735860554
27.56691868195776,0.14111994812274883,0.22452560100817653,9.701497197243404
27.55124525862266,0.10119493353427583,0.21439298521326927,9.81349830822705
27.58723189299584,0.2140204010511158,0.2368155442650626,9.767372373234654
27.57093076261682,0.3150072243463667,0.2530623643570211,9.707066462262896
27.607561158940094,0.3833147321422989,0.23728994727457658,9.687705365946341
27.59059978495753,0.5522631385045121,0.20621631106341265,9.799150767515924
27.62790751100088,0.45621047323791897,0.21146760736118397,9.751513313478839
27.610251062371102,0.506594696692086,0.25453349189273056,9.714482851375717
27.64827231239476,0.5343588908632163,0.2365492911925193,9.695564500839032
27.629883128744865,0.6222730142722637,0.2348490024726942,9.821371857469416
27.66865725705091,0.5724720593237931,0.2442581479278279,9.710492143976948
27.649495095582317,0.525285290792991,0.20801820531251322,9.617440519384806
27.68906315392257,0.5466816448093085,0.22526796798347498,9.707777834152392
27.66908352603757,0.48743998273454636,0.2148052815231978,9.755273395474378
27.709493072583907,0.45666711503573176,0.2567860833138829,9.701597586910339
27.6886477976511,0.42792788256985875,0.21612305993841952,9.668433825680326
27.72994854058204,0.31679122190904935,0.20188427821992216,9.722137105947487
27.70818533580381,0.20892336684257956,0.19447715399053345,9.752903085119442
27.750431971252134,0.14446314711098399,0.1814422329601646,9.65715776943109
27.727693611430304,0.26142026299555576,0.20717949394907564,9.622932817525578
27.770946049661436,0.07365649123162836,0.18595219386309494,9.693454916463208
27.747169736508503,0.04904466485506579,0.2254384755032659,9.78224405048727
27.791494391598665,-0.21892216421590702,0.20709314986303579,9.62392481678323
27.76661197226191,-0.2154108896909331,0.2242789784324361,9.710407506947941
27.81207916939221,-0.34530990327958105,0.1893066246134553,9.704184231441047
27.786012596001445,-0.3476382551087303,0.21922744754978804,9.731374771902548
27.832704221971795,-0.2015072065963452,0.24192160606444946,9.62456234942042
27.80537149794883,-0.10739658584505248,0.17100989859905266,9.70457605371775
27.85337535381639,0.009848240128948011,0.24106098971010856,9.706983880599719
27.824682426602713,0.036286079345653935,0.22866684642222476,9.621594838948283
27.874097081558514,0.21398481685072865,0.28205941076468094,9.412566916201387
27.84393990290644,0.06021816068589873,0.218893286703545,9.705270316409882
27.894875350464066,0.1276743806455337,0.25409051306787117,9.798609373749677
27.863137482684042,0.044413181972249534,0.24525942771422238,9.6316902864483
27.915717558986934,0.13446811033072714,0.24996873994278349,9.702518566123166
27.882268052331074,0.06382212940386918,0.22668961722314318,9.725605993780617
27.936630128244687,0.03814616599726257,0.2050552024311533,9.776623447059787
27.901322158241467,0.05673703174552017,0.21879037617368324,9.656832936727504
27.957624447925667,-0.024111568909689178,0.19514349856462695,9.635073550277795
27.920289881589667,0.09402510293814831,0.22705894721397044,9.77035947065813
27.97871111521086,0.03355385487514401,0.2015608235704212,9.742900612809628
27.939158796363458,0.06429494207939654,0.21808557099105588,9.631207970328964
27.999903656668167,0.03579304203116362,0.21163583762257382,9.674052726571665
27.957914087033025,0.03382544049259055,0.20951017217186563,9.7184432829807
28.02121833869204,0.05098544016692328,0.2163610324676514,9.727211447572714
27.97653789370925,0.02348356281689371,0.1782287125592204,9.592418079789388
28.042675664917645,0.13311900323388728,0.23617262144053436,9.768071097117602
27.995007882520163,0.04450781358814027,0.198641638623962,9.721364976330474
28.064298089575836,0.09997418297409844,0.22841199341746232,9.743525229641959
28.013297620814917,0.06043760815090418,0.22023922371304086,9.644827837619797
28.086117514190253,0.07173574368200643,0.23342644129828247,9.702040326289858
28.031372944053878,0.07025703822027556,0.22552148006798692,9.755857360497572
28.108171439801307,0.05710262808068718,0.22609485917528516,9.6971428902653
28.049191060826583,0.144057909334757,0.2261212728065258,9.735116496301236
28.130508312594056,0.0636099388588648,0.23218158583291432,9.740953798126778
