Time (s),Acceleration x (m/s^2),Acceleration y (m/s^2),Acceleration z (m/s^2)
11.031102418607999,0.05933105418569255,0.19640824044725028,9.758143875596765
11.108436947509947,0.054136540601342195,0.23725739454571176,9.656412324267372
11.053463902794237,0.035472022513825655,0.2184761026237127,9.607916159130781
11.12625088036781,0.09457191987477025,0.2015941893087752,9.792077130481786
11.075541532497459,0.031008099632296053,0.19363459555433893,9.679220740985954
11.144322838629138,0.11151118028718426,0.214849289863018,9.690976659828689
11.097383920759613,0.058646953322530705,0.2335493478990511,9.687707461195519
11.162609868366836,0.11908350068022427,0.21121665170603732,9.808804499825905
11.119029137021219,0.08751497006615812,0.2408764699907577,9.754612297917548
11.181078394974882,0.1106695034287181,0.21237193870837684,9.705055591547406
11.14050805416638,0.0862317386067747,0.2564442734071853,9.706903155186739
11.199699867648617,0.022765119773632925,0.18721987624421313,9.7359416740464
11.161843906275514,0.0824371018361003,0.23564976424374878,9.74234706911689
11.218453993323175,0.015290031495297207,0.21230625249773538,9.585671924740545
11.183057401070323,0.08243666884977935,0.2264443618745948,9.706517449439099
11.237322071702476,0.0464646572009632,0.20452014328340465,9.75484357637661
11.204164692295373,0.11045498917030817,0.22876079018614098,9.761362153767083
11.256289280371321,-0.000832384032560201,0.2395492379088256,9.605514693986722
11.225179311798493,0.052267414847323314,0.19172449534832026,9.68065452872665
11.27534325952668,0.03245479595908509,0.20405962427324575,9.764901416693766
11.246112539709998,0.05083613774598094,0.20999691062420772,9.690446839502735
11.294474707669501,0.029237735586120295,0.24584162492005313,9.681109667446545
11.266975148457192,0.034046641668971006,0.22450079736599507,9.674066402796942
11.31367099186299,0.10658373957812234,0.2045323928647932,9.836351613002538
11.28777238023945,0.062480516778410045,0.2140934833978222,9.694913254585213
11.332928934650743,0.08721355719689468,0.20416956851896664,9.734772292174691
11.308513586173875,0.07601268927115462,0.21767123931225066,9.735530719645746
11.352240379283437,0.11486668390626543,0.19531136271709365,9.79836871768119
11.329204107544841,0.0690506954123687,0.2272792662568762,9.663004033277861
11.37159985332623,0.03412181179845055,0.19788215423832767,9.680296055751164
11.349849079832326,0.08914783877063337,0.24180402001446244,9.731398582748582
11.391002564284097,0.0331635052503679,0.21366726473062625,9.740665339287727
11.370452959195326,0.12434052585046018,0.27032527424285446,9.711616626890756
11.410445326898492,0.015358717982144719,0.20890457180600666,9.64249321696976
11.391020158802876,0.12389269660035677,0.2493893832369137,9.78219660472015
11.429921095047996,0.07931465116780066,0.19518946101729162,9.733088434153121
11.411553224372536,0.2406677979316621,0.23977201255846445,9.638121356155153
11.44943003891686,0.28234448299186293,0.2178134438921504,9.61498454532292
11.43205630911576,0.3085515038809286,0.21702572351666197,9.778768534874189
11.468966865103614,0.1611327013708107,0.21477965632901508,9.740242383388253
11.452538167895616,0.0726853256264083,0.24671921326731047,9.635494778054909
11.488548343335575,0.02108023734141034,0.20368178065568152,9.733024624527632
11.472972860102214,0.008369628442009551,0.1993779665176665,9.743878432256055
11.508128590241478,0.08305115037569981,0.2223991488013556,9.710011996549364
11.493399310492357,0.01781917400795966,0.20596439986752305,9.59184656254542
11.527741292755072,0.02476744045259757,0.2214957710396963,9.75735766692659
11.513804067639832,-0.11820399884066451,0.22430076578540575,9.765346775031038
11.547373400180795,-0.11530790228336806,0.23423324815048607,9.705144923742438
11.534187308265548,-0.09080607902278637,0.26503248178921635,9.694538582221723
11.567026120344918,-0.09522422771391979,0.17898439431594135,9.728979127014629
11.554552139408905,-0.017987674151545688,0.2331477212919108,9.826600244796932
11.586696644982561,-0.07304978882639533,0.22275841014877568,9.680610833734198
11.574899832675689,-0.1469282991469393,0.24468015609048957,9.70487338238864
11.606383662638017,-0.35353355625513405,0.22437323105004,9.647364470021943
11.59523165522434,-0.260869680525358,0.23477176350953816,9.784036477233647
11.626085923904286,-0.26469689795240314,0.23502053734943718,9.636734175724325
11.615549471005703,-0.06877737789957168,0.2552945953585351,9.66790575738593
11.64580434461859,-0.07427017325857138,0.21437101697684888,9.714153065198566
11.635851914453681,-0.006360019555570151,0.2343092187491743,9.69617130574866
11.665532565339692,-0.07383828112041141,0.2649905146629389,9.645679390964325
11.65614229256868,-0.1108193646948047,0.2177800828160145,9.628724671604948
11.685274819780332,-0.05542258623708136,0.22124310870113864,9.789518483285274
11.676420782395653,-0.027429497633159605,0.21282581205753853,9.683225182493056
11.705028642778608,0.09839670770926583,0.23094371760118484,9.637685310773595
11.696688075074082,0.08868076171450828,0.19645062712405184,9.579545752407881
11.72479330284959,0.21746248901079257,0.21927487711753074,9.826527120631924
11.71694487259382,0.16350797908154194,0.24687120581644195,9.731392626169265
11.744568169681033,0.218224294473563,0.22382489516223741,9.669160188757589
11.737193294409906,0.30032282714917263,0.2424636013666069,9.729832446948379
11.76435401570306,0.37560113217649854,0.19492596936665266,9.797276318750232
11.757429673024177,0.4079322799294043,0.23811151931906824,9.756288188723781
11.784145760492022,0.45043965974562505,0.20296711251526142,9.67323934356446
11.777658602840237,0.4531053462906346,0.2549209304887447,9.735404913210683
11.803947522633592,0.4895761555976678,0.20290590357719498,9.774260023766702
11.79787944250618,0.5698057332288002,0.229518800300679,9.766132074771088
11.823757216333053,0.5506635778790909,0.19607135459264843,9.585096631660704
11.818092571155018,0.6140966737681769,0.2355652511753757,9.748085593733682
11.843574401779776,0.5494480269117271,0.2047257861870655,9.772408970202518
11.838298418913599,0.5842646825471551,0.23387382911531776,9.659314873678067
11.863398700578735,0.3671270444345629,0.19143373181958892,9.606264505929392
11.85849891820863,0.2377680349796207,0.22263916942912856,9.716661194577334
11.883230701845157,0.20559518056161502,0.21331432841812004,9.749803254151637
11.878689612730586,0.22130939791232307,0.22000545284616763,9.637122784206573
11.903067080793745,0.31598366323446936,0.22602834003020345,9.740622066516016
11.898875979117072,0.21681525234829213,0.22879262368527084,9.721369738254232
11.9229103550219,0.22028005866595782,0.2174694027491735,9.844773342759417
11.91905642262297,0.0821256690256949,0.2243433788735763,9.644339189343734
11.94275935584014,0.056777489063010854,0.23069709064906782,9.70758825690177
11.939231293516617,-0.09301393306180357,0.24225465643801494,9.759165030779517
11.962613797793622,-0.13541934171375294,0.21670288081456554,9.767813493846253
11.959400811321341,-0.1662612019069754,0.2427282430153768,9.64976565512072
11.982473903891785,-0.24171847290241108,0.21970437356715158,9.671548547191188
11.979567003722595,-0.27823150950001035,0.26302391799190683,9.771669442571332
12.002337607658259,-0.4179745018669508,0.21707382497704344,9.724649106104804
11.999726774890473,-0.40096899795712543,0.23092264087570508,9.723908642503629
12.022206531390239,-0.5692181082805509,0.23040731306072787,9.606701090023641
12.019880946627577,-0.782310009011429,0.237403512315251,9.756714282851245
12.04208003374338,-0.8868914489435534,0.1961602710233348,9.635647510925855
12.040031948296871,-0.6176112956578409,0.2713989821103128,9.673254843266117
12.061957725238695,-0.5557038662430293,0.19581986208907656,9.68262274496285
12.06017885511248,-0.49803561158358617,0.20217732347199152,9.731285063851228
12.081839414743428,-0.3761924024005144,0.2515284752472116,9.71984087262234
12.080321879445016,-0.45536860956102027,0.2308029473343924,9.568323406835175
12.10172558884159,-0.4324831996480022,0.21418263294134826,9.718945315375134
12.10046104144184,-0.5017852737239723,0.21157825662318394,9.728113765908631
12.121614845906421,-0.3981671790248997,0.26426534039700306,9.723857067763085
12.120596612726393,-0.3524374476128001,0.22211755873302766,9.608667211002281
12.14150694282815,-0.2840665579026235,0.18279681878995419,9.74081226852687
12.14072887968646,-0.20409613879484595,0.2353750598349298,9.729687609567954
12.16140297590506,-0.06698016733665668,0.24773938527481898,9.724015743395189
12.160857842579558,0.0012304529289351527,0.2506938543806956,9.656447530920543
12.181302222234855,0.026885922951402238,0.22789255503510458,9.777574727503834
12.180983668533724,0.23630600153483064,0.2459088479878488,9.794329687536473
12.201204530507347,0.224252901703383,0.22911828820371727,9.639846826812903
12.201106524575096,0.28083413446736577,0.17971218699627903,9.617799601359541
12.221110446892386,0.36376523351328915,0.17584562045109964,9.71137339738173
12.221226334842338,0.6226208301076469,0.23884728767252,9.784082486835763
12.241017945363858,0.6778278075551364,0.22004720325344562,9.672934945427443
12.24134353651243,0.7706522068522601,0.2243129788401995,9.659131289271848
12.260928726348872,0.7502449739254122,0.2080824987364092,9.787575766104071
12.261458059433277,0.8392407764579815,0.226585734740199,9.751036842212946
12.280842114174627,0.8691055934021322,0.22482505430295432,9.632474590115274
12.28157003245899,0.9695067882628053,0.22190262180137849,9.686431237604452
12.300757999265867,1.1186692098565405,0.20755007623677316,9.789023435429941
12.301679558530333,1.1784478244915406,0.21918388722072923,9.698868532432382
12.320676282700123,1.2957551531463454,0.17345352165686545,9.714865581763256
12.321786733430326,0.9313053759394578,0.212300620571114,9.766049796469305
12.340596871434114,0.7532378992472112,0.19669705205170548,9.84087538311264
12.341891647695341,0.6625876619418894,0.25064524475422284,9.779189330270915
12.360519677269407,0.72864425315447,0.22869677854270962,9.66137141711422
12.361994387335919,0.7020155289797856,0.245205039388955,9.767224826197703
12.380444616221157,0.6180899607979167,0.20291293208423605,9.784556146143322
12.382095034526586,0.46491298367078554,0.2430473441656483,9.768623953777832
12.400371607571046,0.2671752552760233,0.20738703646344525,9.668864714987544
12.402193669247696,0.17794175240251478,0.23155962251611265,9.755732231701451
12.420300570276392,0.017381510586806856,0.19669535868726584,9.747670079835546
12.422290379404778,-0.00644144648480654,0.23042168052588055,9.734454303598065
12.440231381640901,-0.3107602907804465,0.20730969684351663,9.659086019034609
12.44238604045631,-0.44139477713162867,0.21657528516963181,9.683267089629824
12.460166044057729,-0.5557547507811725,0.19836752211887634,9.709747224028616
12.462478693358038,-0.6330580064592924,0.2698062115909354,9.640812448282594
12.480098596480527,-0.7538774839177945,0.19320959191648135,9.649289587117995
12.482569468447998,-0.8058226847612999,0.21209350057716161,9.66575019179406
12.500034864514383,-0.9620303300113929,0.23114881947346022,9.721564411108279
12.502659034888133,-1.0480936140494652,0.2296354266937225,9.617376140138452
12.51997272311638,-1.0166807669926847,0.22526257026113172,9.717565544349478
12.522747005012294,-1.2800731706917698,0.24858267342387377,9.662441793471192
12.539912152509219,-1.1004956221639473,0.22916521961625202,9.685906825661842
12.542833445870109,-0.8128024331428877,0.2292766861360228,9.692766242518674
12.559853028238305,-0.5432281247199011,0.21454472490424947,9.708947312647108
12.562919302784696,-0.6201147892911545,0.23336139608859682,9.754335280006485
12.579796793006903,-0.7125538439548234,0.22418949335560087,9.731238992295125
12.583001363149654,-0.685038581193915,0.26005916638998366,9.65348442303197
12.599739807114327,-0.6114599740050439,0.19352900265104236,9.655835645484206
12.603083477972573,-0.5010054744147906,0.22820430616888954,9.77881723125003
12.619685077195092,-0.497793928421412,0.22073286826182578,9.66802150477107
12.623164125003383,-0.3378632681446001,0.22365103219759438,9.596849958488523
12.639631733945134,-0.24404456036679195,0.20700967543206797,9.706305270886336
12.64324342422702,-0.15899386597162535,0.2321691583609072,9.72897791659171
12.659579712666883,-0.015423638144132237,0.25327868127510766,9.744100745557121
12.663321414325909,0.09200372418314333,0.23795170208695182,9.580165354565265
12.679529066846177,0.17118346419650307,0.2243670840445909,9.76022891962773
12.68339914122596,0.31631805940648144,0.21198105676661189,9.713675627007483
12.699479667050754,0.5402902177013011,0.2146411338122605,9.695436413750398
12.703473692173295,0.5427656909825019,0.23171846362547827,9.592514274637379
12.719431107195192,0.7834139317999271,0.1960746065905324,9.779282185240668
12.723548110814452,0.7660711684004198,0.22404241273660655,9.790630846020482
12.739383909555738,0.8357241623009439,0.20549437068225893,9.703191681328327
12.74362135603631,1.0657520011878325,0.25234604828222756,9.726397670749174
12.759337851382005,1.051581622291943,0.18763748355538715,9.787444434172903
12.763693475745495,1.1076989320193995,0.23464537460253013,9.794304880145615
12.779292920196768,1.1358002875459805,0.22342505983474745,9.687713934360396
12.783764423174864,1.194282326410851,0.26207620228151707,9.750946804581403
12.79924968883764,1.2845518167640264,0.1914334462497505,9.784014568980057
12.803835365967776,1.4132810824706032,0.21453524390874718,9.813089499609676
12.819207061647099,0.9918357818244566,0.1802754776903627,9.673143532078292
12.823904606150897,0.7529395902314432,0.18882139209998638,9.69707975287411
12.839163631982183,0.6815061790852084,0.23118109442908577,9.79252693909249
12.843972093346808,0.6627448038641117,0.21969915042376822,9.74562258636446
12.859122781657602,0.6078678265874485,0.22252592129884882,9.655059884621888
12.864039165672105,0.5009071687463896,0.19735316406714554,9.70958069698279
12.879082768323796,0.4226503518438118,0.19928782721303354,9.81103277478252
12.884105357762442,0.2428997521506941,0.24830711921504345,9.675625292982941
12.899043641394474,0.23016381099955002,0.22576282611275675,9.677114230606513
12.90417067514768,0.05072308490126017,0.18771722357337045,9.592367706474668
12.919006530019065,0.03895171782402752,0.24541904939292036,9.790154994817302
12.924235264903526,-0.03450289258209651,0.2332652874888985,9.721584758775087
12.938967907298366,-0.22059658880060037,0.19701195532378052,9.665859016852401
12.944298788352572,-0.44011572847531694,0.21786935983602507,9.75565995092044
12.958931348641157,-0.4707329000909411,0.24135733754039038,9.746539041055353
12.964361576669246,-0.5315840341618243,0.21736951406293287,9.750744536057502
12.978895578307878,-0.6711589390599126,0.1932740910431258,9.647277718515591
12.984423576360301,-0.7643479596196777,0.25459469875660506,9.74840968676794
12.998860589715509,-0.92673611488671,0.22768416109659714,9.696819395476162
13.004484803004894,-0.9506823953479189,0.2728383950557776,9.757826677102983
13.018826364434577,-1.0155167443767983,0.19881513870996748,9.629857948425782
13.024545286671321,-1.184968640338255,0.26189266315163945,9.785787824479035
13.038794033436261,-1.362713358101194,0.22395784825846085,9.722807073089152
13.044605147440619,-0.8836598566856764,0.24673524627059462,9.66023902642543
13.0587600602392,-0.5705973806494271,0.24297537865834254,9.654145005055746
13.064664094699419,-0.6503574829078161,0.22614293098772778,9.661411510898963
13.07872802015416,-0.7727818589375461,0.23322736243384565,9.730545854784767
13.084722425617446,-0.7057480940508593,0.21869441705627385,9.613892703877163
13.098696645454783,-0.5598037149768126,0.23208766605584355,9.743802883500344
13.104780092302247,-0.5873249690629733,0.24299020538507896,9.695830198564405
13.118665924796588,-0.4234954744556806,0.24066006705152626,9.735642714433567
13.124837123380006,-0.2799803998303026,0.22706860699722123,9.64656036213953
13.13863579537281,-0.21906581204853073,0.21878580978904688,9.685050472763464
13.144893854774764,-0.1307853923104667,0.23046067431074171,9.719709491363469
13.158608026083927,-0.008020190360087914,0.2303295862737261,9.731977703357417
13.164949111569614,0.14819828285614492,0.23991036582230005,9.654765063137212
13.178577743253715,0.21354353275278737,0.2134895289727744,9.740663715006454
13.18500422576446,0.37844798913919486,0.2194934464494085,9.782699664405484
13.198549527676516,0.5269809941634496,0.22789924048735527,9.735952698500853
13.20505876721915,0.6528891337559202,0.22381680261691303,9.680926460207688
13.218521900266687,0.6531326984912859,0.20709303220794853,9.71820020341604
13.225112731472787,0.8211081192295208,0.22031439322801424,9.784590803200079
13.238494835731169,0.8894592342965094,0.21082950444001886,9.703973223429301
13.245166154621058,0.9824267696200945,0.22348329716575902,9.685954970414508
13.258468259026973,0.9510958236101081,0.20423417052299436,9.752270440210983
13.26521999165869,1.049710743090559,0.23473210088772323,9.784862517453611
13.278444001619933,1.1322974419521161,0.231071483291871,9.699652145083382
13.285271763915421,1.1365259957966412,0.21709653585450522,9.723275080014723
13.29841715220895,1.2398404422846423,0.1645757416514222,9.802290212394581
13.305322897087743,1.2812175237440053,0.20646287641842434,9.740035116306334
13.318392231700049,1.067519784843248,0.22266244468010318,9.683113040605882
13.32537417346151,0.7083677268277652,0.20110775959717786,9.667397670306013
13.338367832006494,0.6974937259332767,0.20496986401214154,9.836634362122519
13.345424949137032,0.7844651396070672,0.23921450317619966,9.789318968671985
13.358343915787211,0.6946376365006289,0.23063593964805643,9.618778618747275
13.36547526616652,0.6203213203803236,0.25357438104926233,9.740980619234312
13.378320397836363,0.4569940086755289,0.2082874541059457,9.811617454177487
13.385526132392648,0.32027805838109585,0.23221240674691435,9.75810007761279
13.398298634683895,0.21975109559032832,0.22090123840093645,9.685946542566386
13.405574017711134,0.17441640065883665,0.19626308366165668,9.719869218600548
13.418275348159716,-0.07226573833814491,0.2210107254027215,9.746380869441397
13.425623005600139,-0.07643904025311679,0.23645437920538911,9.720509582368136
13.438253277442413,-0.27540409952082207,0.22923340594002892,9.679819188536865
13.445671452719639,-0.40762561424995664,0.2293029226861376,9.701204195585326
13.45823168301442,-0.5078067449740896,0.2033450284511649,9.775790661726708
13.465719446408603,-0.6265870673872596,0.2280086340788403,9.613079920281486
13.478210531248129,-0.7279325321620045,0.22215502253287292,9.652834028944946
13.485766996135526,-0.836358936777148,0.21619622597824592,9.647306834787994
13.49818991786408,-0.9146806975359966,0.21232070049668453,9.685223081561313
13.50581583518085,-1.030112118459515,0.2261027980706224,9.650034159719375
13.51817031658876,-1.0691420968089265,0.21971252285625134,9.636077676333427
13.525860713264299,-1.290720639650684,0.23960640453106774,9.652536456643343
13.53814968201299,-1.1280060447720417,0.23349128497542215,9.731018857702278
13.5459071338288,-0.8042409427571267,0.2516702335955745,9.710442112403943
13.558130137437836,-0.6569621833099517,0.22699744272224506,9.604288489340593
13.56595308604488,-0.6314419214729978,0.2288904688471283,9.732603602379857
13.578111012682196,-0.7292375483792236,0.22557327723223916,9.681380278561193
13.585998628634004,-0.6835728956975522,0.26640545562604556,9.711815068739517
13.598092305819636,-0.6250432475235825,0.22670827396044196,9.659611479789532
13.606043701874706,-0.5433012323946644,0.23343319857731737,9.779326915784791
13.618074671194842,-0.4586448864238935,0.22356612272853507,9.708458809760447
13.62609001598925,-0.2856465009483321,0.1993303198905389,9.697280335747154
13.638055558094901,-0.21065639160864866,0.2450943639846088,9.686879386689867
13.646133346460333,-0.09742155337045338,0.23613723702803602,9.75948156983367
13.658037991216998,0.037133576787664956,0.2096759334728447,9.747578622248499
13.666177420708188,0.11521877047451953,0.22647902031269784,9.547388425363192
13.678020689989221,0.17400356333200942,0.2061449444274331,9.7437405053457
13.68622118360724,0.2952406233275505,0.21019016881670488,9.70124513317599
13.698003713859553,0.4844826057903053,0.25009123182274196,9.76665127102798
13.706264614758844,0.542860343532215,0.23907533381771198,9.644595721243272
13.717987077987518,0.7388706591149465,0.21255749956424608,9.735322385394623
13.726307676352471,0.8309668707161111,0.23039700894850607,9.74419161172792
13.737971268250849,0.8797394343624179,0.24361251909533924,9.687441781944576
13.746350730445034,1.006280547503047,0.23661424805602682,9.643846374277592
13.757954588686772,1.0112893843389807,0.20769768322460064,9.71149178435579
13.766393118718819,1.0404151861753357,0.21144925427639494,9.822488211840621
13.77793890424475,1.0788557950941497,0.18838653523169333,9.650598820469106
13.786435290837208,1.2531541298557078,0.22210819002274548,9.767651878092808
13.797923497628386,1.200429826279823,0.20006620590908328,9.764026861048256
13.806477174838236,1.3703450419810386,0.22432162138094078,9.83855176003896
13.81790838038757,0.9898091893572113,0.19457717915471615,9.646291801690127
13.826518771792765,0.7752829907965445,0.20048950225633197,9.730717773788156
13.837893543041982,0.6588642401278768,0.23229989101173967,9.795172594476794
13.846560126601458,0.672422504645109,0.21955222202143132,9.763406368954913
13.857880187990611,0.68977018498588,0.21480039669483947,9.688344571865553
13.86660114141153,0.6021530699538502,0.2238085046243682,9.687376212498952
13.87786473875771,0.5123687293578763,0.21762762083651957,9.778746021356582
13.886641852911662,0.3041810126580035,0.2108241603575572,9.778575581619217
13.897850753105502,0.2359077109161577,0.25253905054262754,9.725639394356257
13.906682331673398,0.05549403087324044,0.20831831147530602,9.667582267582995
13.917837027656233,-0.048195340050303764,0.20982330081322897,9.741532428602131
13.926722549535897,-0.11614222315128801,0.24700622470682004,9.678038076400153
13.937823559140517,-0.30894866060130205,0.20678430914076154,9.632501258161378
13.94676252021877,-0.47122717185683494,0.24848539141478715,9.686873205326455
13.957810304486092,-0.5461162052465706,0.21934450848027168,9.708990793060057
13.96680259546641,-0.5077214200943612,0.2646284671471465,9.719252301219951
13.977799273073236,-0.7400047735681063,0.19153886748617022,9.600137354188071
13.986842570723855,-0.7571229429886732,0.2336722716865583,9.680961440039477
13.997784927137381,-0.9731913545895202,0.21130851538014464,9.668298145221875
14.006882024921541,-0.9545682321124442,0.26121008091794656,9.677357707800926
14.017772030655667,-1.058328747895796,0.2455795935017548,9.617875826248094
14.026919972781327,-1.2103867257335035,0.24136756276467625,9.710148322510497
14.037759888301913,-1.171771553383605,0.23528436898089378,9.772310746530891
14.046958676068579,-0.7871364426836072,0.2602427869584188,9.71200574860114
14.057747897786536,-0.5984893743697637,0.21389560728016177,9.675631074340743
14.066997197948975,-0.6232667732240711,0.2352167409660152,9.695621383372236
14.077736062739554,-0.6853451235001204,0.26578868687679674,9.76443008004975
14.087036564131813,-0.7673093338906298,0.2277335646282497,9.620153148066256
14.097725840166822,-0.6572190502816232,0.21889546163842552,9.675703861772153
14.107073707745569,-0.634159804394065,0.2501140681866384,9.662254741484807
14.117713304066028,-0.4384474966798926,0.227743400774037,9.72366462835339
14.127111292568618,-0.3356718329537213,0.22409393685584938,9.651223502945873
14.137702216366216,-0.20924032549856544,0.23452297690384374,9.681533294498951
14.147148917299283,-0.15852806660391247,0.23320114599560135,9.75150702306605
14.157691313491416,-0.0444681151585466,0.23810334311279308,9.706470576909853
14.167186341420187,0.17518684277178223,0.22993456649019542,9.655978838641081
14.177680611394681,0.22264918654892182,0.21301739245767123,9.685676918724173
14.187223569375169,0.3466812822814234,0.23630376539024606,9.739544091662093
14.19767009530864,0.4306840596191533,0.22491053402924208,9.718125817227513
14.207261339007866,0.6171613834712013,0.2193769126290479,9.677926390817422
14.21766042019175,0.7516729341927783,0.22144871886237136,9.775819047352163
14.22729725563371,0.8842749604751076,0.22315644246173613,9.807051356155752
14.237649823871525,0.9510229188425836,0.216024554593957,9.753148255719667
14.247333934115506,1.0440223947861467,0.2532752561938908,9.710002672621824
14.257639901272276,1.031813385560427,0.18149885343005068,9.769761365297443
14.267370370374476,1.040612253113876,0.20947487722049404,9.79854544162754
14.277630190308763,1.2128919915987981,0.22813718983894402,9.740242847872148
14.287406600713656,1.1373507948003838,0.2184235010447365,9.691893061706867
14.29762069084057,1.251209030800098,0.18432129388132504,9.747053403421434
14.307442590659042,1.3083812021666734,0.2399216735039006,9.756612284920923
14.31761162488734,0.9298656415235278,0.2064260575134721,9.68600909227287
14.32747968722315,0.7267250606683241,0.22025252547265983,9.68242918027171
14.337601923015914,0.6523197541912615,0.2136484991757678,9.775749827012904
14.347514410354941,0.6479348816403455,0.2304357855115662,9.7950969414381
14.357593020121671,0.5419502844661546,0.1982826289894007,9.674885973120444
14.367549900261897,0.5632371694865614,0.22693917082928464,9.674321707223806
14.377584221634812,0.4335264851659283,0.19157086426861739,9.737988187188552
14.387585242468658,0.42033629320590443,0.2044849173047704,9.797253191345561
14.397575584691456,0.16118172936199876,0.23134133332352047,9.641158854107578
14.40762041479006,0.1114077217544867,0.20491544127454991,9.672916593571944
14.417567128914635,-0.07527613490753449,0.2268899799042788,9.744090318421165
14.427655375353499,-0.1573294898248146,0.2152108855865662,9.720281942940682
14.437559076148778,-0.31091371724488454,0.26238718342642164,9.72175849977425
14.447690817244048,-0.3989880048765103,0.2346783511583119,9.724337893828467
14.457550414843801,-0.4276749637093872,0.20800196291016076,9.74104835173257
14.467725170133376,-0.5936152351356986,0.24678651475351318,9.71659132268083
14.477542478540853,-0.7178701727896435,0.22228096491750896,9.717784263063463
14.48775969438994,-0.7705945289457773,0.23246201257018995,9.712635455615182
14.497534638162113,-0.8785150919151826,0.23241305706846846,9.761441499858128
14.507794087707198,-1.0123760069916614,0.2423729466278899,9.696755050361123
14.517526939903222,-1.0749594625276997,0.2300380635357631,9.621320483749079
14.527828332748708,-1.2665895954738462,0.2276020665375788,9.684910271399753
14.537519397868353,-1.2464612723163664,0.24176163856943564,9.65807971117346
14.547862396106055,-0.7985811908971191,0.2655468672239309,9.738031883621316
14.55751254159658,-0.6741971378965915,0.22103661658727158,9.592267659736413
14.567896550925,-0.6191758745098017,0.22336706446162505,9.709166293888346
14.577504609117792,-0.7517839101772926,0.20859387205217975,9.68093343446951
14.587930308695231,-0.7100590556694516,0.24917875777081339,9.641888510640104
14.597497493799716,-0.694297864173269,0.23662953219072122,9.61381488147911
14.60796399023726,-0.545155830622274,0.2315384332382494,9.7050303370825
14.617490497188138,-0.3299410358841913,0.2436132361550275,9.787849134173468
14.627997544606588,-0.313409238527224,0.21005159031886114,9.632636849695912
14.637483630535067,-0.29791570247384097,0.23267744050756978,9.731686835341437
14.648030966184173,-0.20543040920042813,0.22021452275224643,9.736130802312985
14.657476910494857,0.10125198406635272,0.2599051613638923,9.793528774731252
14.668063998589291,0.18474502639324566,0.23174192153239728,9.649698540195592
14.677470476924242,0.331186689368911,0.2019792674013734,9.710335504274417
14.688097907272255,0.421536441056494,0.2370857110426442,9.735231243116568
14.697464096223946,0.5511881147446931,0.22039238936878647,9.752742046647935
14.708130339224768,0.6252868881808695,0.21485663867450508,9.683709983949242
14.717457539699229,0.7889287006160606,0.2241102473161803,9.722414642246079
14.728163314048768,0.9100355249723472,0.23311634325703579,9.784655064931963
14.737451276387445,0.8343960704419373,0.23586076674479495,9.658163443009869
14.748196130336739,0.9729440130766647,0.20531550750523014,9.64560278027455
14.757445143403347,0.8972977702231141,0.20774184702223394,9.692845422931022
14.768228832138336,1.0413512082316887,0.24055666166049225,9.706408218976533
14.777439101717507,1.0679720893241273,0.22075315552455058,9.706319059703928
14.7882615391331,1.0946347414832405,0.2378365146987466,9.629333420281622
14.797433866441272,1.186125902486058,0.23127917671984344,9.640512271080471
14.808293660704706,1.25796547981684,0.24315241105893903,9.7197816632478
14.817427613026664,0.8925905434624207,0.22422973140237984,9.645633701004947
14.8283260612816,0.6398040805414044,0.22991424929909574,9.65128286992621
14.83742193128496,0.7199739057401862,0.25538662485951386,9.747974107604044
14.848358297309733,0.6328219679991187,0.22692311661646483,9.691339752859742
14.857416377167965,0.6287250818955237,0.2211850001294601,9.611927637861028
14.868390418441525,0.5605661614549832,0.2521123853437051,9.688110721594493
14.877410929787207,0.46740516058730647,0.2235706330045324,9.764820233993873
14.888422442536891,0.2627757825873484,0.256383553970933,9.749093920085064
14.897405558315189,0.16395942357031293,0.24381696504449088,9.681739845654967
14.908454489673582,0.16408055431827898,0.2235879135019194,9.700473416639868
14.917400980524283,-0.11298544454309367,0.23197906082987568,9.769591580502548
14.928485948947122,-0.1043879286937463,0.2237137743783723,9.716233685551224
14.937395380742744,-0.4042571761851564,0.2047453211762867,9.705150409670102
14.94851770732057,-0.4267165772713425,0.2351069136369223,9.744005723043376
14.957390336936713,-0.5094845158058956,0.20805737809604255,9.761075635393105
14.968549309356382,-0.630974126151763,0.21983316413283835,9.634393065209586
14.977385413681379,-0.7651971376907301,0.20263839056575533,9.646754509428051
14.988580801171754,-0.8308084910201008,0.22210291264783805,9.625399060985947
14.997380597400033,-0.9752395591902321,0.21824113465666425,9.74625661248691
15.008612183909307,-0.9916233543433938,0.20087343245672976,9.636321469569427
15.017375910117073,-1.0495612973932813,0.1998034676446248,9.63243001782486
15.028644131522109,-1.3028942667995118,0.20239406799942522,9.661188220658847
15.037371175713355,-1.0227943798941213,0.22853522080141137,9.796924364149428
15.04867474242412,-0.7357133549272812,0.22885512537253802,9.761007961368426
15.057366667921405,-0.6219138302362899,0.2010133246314273,9.71625336221843
15.068705845913291,-0.6054062651968023,0.20406350599663128,9.79058192093327
15.077362225884706,-0.6818216205951799,0.21698117066524922,9.760245009382503
15.08873686867831,-0.6334440445432932,0.2283755534562443,9.744168983440945
15.097357867267984,-0.5932069158620696,0.18686625825739464,9.670255182366898
15.108767808405606,-0.44556049076041443,0.23182920218399847,9.826290858145132
15.117353589347797,-0.396472067159012,0.22433237208977183,9.750854524888206
15.128798672873204,-0.24483787489670658,0.25294568099470605,9.777399301568247
15.137349374300642,-0.20629563106025445,0.20685867220062762,9.69599550328545
15.148830544933524,-0.0007877632461510832,0.2203652378595102,9.842879728536746
15.157345528558093,0.060545178499836864,0.22369734671451516,9.743893835774035
15.168859998897606,0.11392533809041892,0.2135889888508042,9.60582207716732
15.177341371403411,0.25033517202933525,0.22161681672406006,9.76180200273155
15.188890632389098,0.32866507559892616,0.22156600372586377,9.714875253022186
15.197337422723987,0.536242928067635,0.2080211510360609,9.66277781174109
15.208921153308816,0.623702697911869,0.24331930201863564,9.654037093741337
15.217333571307256,0.8120724832214957,0.2045998587367932,9.742070379542259
15.228951578722338,0.7901988188123661,0.22305982273345054,9.728536894145552
15.237329822959966,0.9041989467151751,0.21221018057223384,9.65300110461478
15.248981869636479,0.9855143708986592,0.2421414335950489,9.632911570523364
15.257326435416758,0.9672601235830751,0.21987440408947856,9.720219655448476
15.269012693658413,1.0268232053001871,0.24480215197450234,9.7292477681057
15.277322273417498,1.0833036297765566,0.18942888478176678,9.630004096900985
15.289042588355468,1.2310016053175927,0.23221638953092955,9.706764081393622
15.29731879325479,1.204768981016034,0.20931812242368994,9.670317012651429
15.309072695009112,1.2865751084756019,0.21721434637290596,9.74552814607674
15.31731533032278,0.9033925239552225,0.24048879703583145,9.652644328295988
15.329102751265513,0.7280851411396598,0.20236962199031824,9.71067274842782
15.337311928644969,0.6731146009592147,0.24057411210030918,9.73322607638495
15.349132740398653,0.632453851011171,0.24611002198469425,9.711815071877679
15.357308601399568,0.5979296145749284,0.24102193995955842,9.657952628923207
15.36916263194524,0.5114659096651706,0.23224612725066662,9.659574017969508
15.377305577203908,0.42988119673438985,0.2268092008213515,9.801381943476892
15.389194322037095,0.30760449930802647,0.204614913097749,9.706917793787898
15.397302679160033,0.23537893330268306,0.22907219566213383,9.699943442416483
15.409222221400562,-0.0237304393772842,0.22407542898145372,9.645597095524518
15.417299020486922,-0.07854781956662142,0.22732698608388271,9.76384852418891
15.429252030847632,-0.1634765612049151,0.21576546484272027,9.702421903209515
15.437295911138687,-0.40560660669637905,0.19874019088604702,9.638921594271723
15.44928171758849,-0.525210015483917,0.2058639904310117,9.707611517224327
15.45729288301664,-0.5561870889062545,0.17077859642210497,9.693857456120238
15.469311334941146,-0.5510387843907913,0.2139644896034004,9.70220925726707
15.477289920291387,-0.7663455005701794,0.18800525966599319,9.612267435854005
15.489340880453945,-0.7930563640486956,0.21096017206962278,9.72187378854675
15.497287562631428,-1.0290493786525667,0.19491343690812787,9.650150562774929
15.509370660652499,-0.9269220569257115,0.23915472376579971,9.704122204902522
15.517284703608722,-1.1534579743395657,0.21270083371283974,9.585367043375253
15.529399684337985,-1.1829567184382277,0.20230295106438462,9.790351514409345
15.537281474845857,-1.003261427545393,0.23910423592697164,9.852960964637886
15.549429135122056,-0.6655810139668229,0.2244454762951702,9.741120507685025
15.557278710934815,-0.5767861228669959,0.19364235822939782,9.764523588291976
15.569458486920038,-0.6032990318614092,0.22042840708920317,9.83146029302962
15.577276003162616,-0.6059579304405351,0.2435985494023473,9.803908259024418
15.589487811184243,-0.634774017462004,0.2392484875292652,9.722631173788935
15.597273260418874,-0.5185913105749146,0.2404425309821908,9.765113286987013
15.609517690278977,-0.54554114948345,0.2026665484092159,9.740476572562603
15.617271659521887,-0.3703923362064007,0.22302449708585095,9.763230964420115
15.629545828799175,-0.2810018341941947,0.23198762664671257,9.654331016766777
15.637268542646202,-0.2120593280193618,0.20410373721214237,9.697015883828207
15.649575058578597,-0.0770398521267418,0.2059313594282786,9.817535188400306
15.657266027152813,0.009709908449406864,0.23768644089517144,9.67732128558771
15.66960414842752,0.19942047202948548,0.21305377599582595,9.641777895297942
15.677263593998983,0.20096411876788037,0.22119625032613627,9.723021356402473
15.68963317605975,0.39362680845440734,0.23821229646306813,9.694439792932199
15.69726121133173,0.47440804196355935,0.2083670975882599,9.694988031772123
15.709662165603678,0.6553933042267449,0.24977652834753622,9.633831595936533
15.717258840885902,0.7581564255659644,0.20650741254050578,9.739507581390923
15.729691269963194,0.8696213053596688,0.2411981521169712,9.74108139356062
15.737257198756863,0.9297003102992353,0.22278054490980775,9.728930264170986
15.749719749571785,0.9507992206172414,0.25075467204557944,9.646788636252404
15.757254530672828,1.0109700904732868,0.17094195903916426,9.745164482346322
15.769748648643002,1.0685164786957684,0.23044308977382696,9.663156266854273
15.777252318157737,1.1528143103770458,0.23188368061246695,9.681320227243717
15.78977744931417,1.0825728305712679,0.21412492633932714,9.66258187059053
15.797250164046234,1.3130309524697596,0.22088263596803448,9.805164369708306
15.809806208204817,1.2288841806366857,0.218833064625567,9.741655493425403
15.817248035232316,0.8861650339192894,0.20951728831972283,9.684012077139279
15.829834978601014,0.6966051584518128,0.22877298083388967,9.717841825344484
15.837245656408891,0.6330617074024354,0.21509801299851156,9.80307538447436
15.849863971909175,0.6467336361378432,0.2514631213571698,9.736729767688226
15.85724466071735,0.5148251380643231,0.232834837385132,9.598337849103412
15.869891900373334,0.5475121652114388,0.21546145349061846,9.722451272876526
15.877242234346177,0.3007476175015949,0.20424790858161307,9.750469059576126
15.889920554593298,0.2510495206612906,0.2445984686755236,9.750968765093738
15.897240272482184,0.11863004204658252,0.23539793181546034,9.635201792716094
15.909949099681576,0.06511486727144059,0.2346036038653162,9.750957440029929
15.917238380738068,-0.0509393303933572,0.21511172647941962,9.793186942432799
15.929977583663858,-0.19280890419170402,0.18482083829728144,9.64591808866127
15.937236554890067,-0.4330698640210956,0.218818027669887,9.670579157532005
15.950005968694468,-0.5560710925376371,0.2073558399140692,9.668854753940755
15.957235104624194,-0.5425013925432528,0.21168370577837722,9.737000605321178
15.97003574632369,-0.6846029422621817,0.20090272926870711,9.642156470366597
15.977233198839874,-0.6814289436685214,0.20198990203578432,9.726501140454143
15.990062880262458,-0.8260808092683455,0.23009787819212307,9.758746414351013
15.99723113829632,-0.9624095843900929,0.20926396809487272,9.73831982898455
16.010091255612274,-1.0091147331135137,0.22252620169133988,9.704549153492506
16.017229423254467,-1.1026983849746042,0.20106028895161338,9.646894459787692
16.03011957165635,-1.173273813112212,0.22944082824865816,9.848859264366416
16.03722774792388,-0.9995140099457585,0.2140382128647741,9.690164770548648
16.050147850870125,-0.5981036484462815,0.24090744566596584,9.786346386314548
16.05722611142225,-0.5756120236488906,0.19951171650572125,9.68134883814488
16.070176082152837,-0.5348328899921189,0.2120662785263462,9.853227666905473
16.077224567743833,-0.6900151536063885,0.20366799626070106,9.737776386001762
16.090204964332127,-0.6113264457977972,0.2423130655614918,9.774872355840062
16.097222786038955,-0.6215554758374202,0.21150108550883295,9.682749892250644
16.110232604486665,-0.49475738675851866,0.2071730786470057,9.744106582992638
16.117221271810475,-0.4059154445414749,0.22790661749440955,9.729998480648101
16.13026075821006,-0.3714322334231987,0.21841657229649586,9.648220561109133
16.13721974365099,-0.22334837772864338,0.20109874559777113,9.759918769991543
16.15028890075948,-0.11414464575681724,0.20446166695425133,9.740165066767105
16.157218232551674,0.11755829583345284,0.20667415218070645,9.714962871139354
16.17031702506802,0.1554125555792348,0.21321533354435676,9.651117786460583
16.1772167387232,0.22551151974541778,0.2055608911032885,9.770160026679275
16.190345133112906,0.38144242782556265,0.20538561493211435,9.76679692457633
16.197215823162317,0.5111882713459628,0.20112202631935405,9.71839426903977
16.21037376533334,0.6598164395251727,0.2534420840421729,9.641365322172577
16.21721403248927,0.8258602008248166,0.19470139862804142,9.75738153314258
16.230401153314133,0.967706384409434,0.22096479657621917,9.771408921495194
16.237212488143236,0.9194964589438572,0.23368958415325447,9.657237794081183
16.250429225949656,1.0414331884480328,0.2307332032793779,9.70545483622606
16.25721106458739,1.0113125692694547,0.20992314856260916,9.757663747374396
16.270457258207358,1.1497342014591265,0.2524201344868969,9.707716223643965
16.277209661647362,1.1367922003354611,0.23340665035204905,9.697330280118644
16.29048528420651,1.2194674554742853,0.2650083032674111,9.734349048315952
16.297208237480937,1.2590094938567848,0.22996791443604025,9.77071997670786
16.310513473372627,1.2139502681176426,0.262145228568966,9.688006248098446
16.317208110779013,0.8557449838298906,0.24487961658433804,9.680597634610564
16.330541057930056,0.6472613752794907,0.2597822214362273,9.670697993406703
16.337205713129475,0.6716513755774008,0.24581760299000113,9.839969368831635
16.35056908479601,0.5334283279920046,0.2177169425950872,9.68133377322689
16.35720434501629,0.5547954213043887,0.21970478231078716,9.601391720306761
16.370597064081316,0.4704557949260159,0.23196063513644843,9.686272383569538
16.37720298859435,0.38137358424648043,0.1926718291593206,9.726053667591819
16.390625050845593,0.2217658099080663,0.2318079556050502,9.699537813979864
16.39720160483036,0.12034391018997387,0.21455192073860496,9.628351554558417
16.41065309649805,0.0028917619656925364,0.25095511181273056,9.669105712153629
16.41720008743225,-0.0932376558812362,0.2137949411810197,9.7748856683432
16.430681875394598,-0.14125348200595134,0.25631192676485637,9.68237262241359
16.437200340063324,-0.4282145009185048,0.16476633163069462,9.61493581819008
16.450711069696748,-0.4619223034348553,0.1926033970571137,9.721229569967667
16.457195620581587,-0.5211841461399732,0.2396031913448564,9.810077665645546
16.470752056964702,-0.6070687522090469,0.24360195983988744,9.684832754703631
16.477201870833678,-0.6757054714025144,0.21864748457763156,9.787228955229883
16.49076176709196,-0.7879954091778166,0.2211827411829969,9.759014869527215
16.497197380473327,-0.9660080118433505,0.2366173764402437,9.772968407806976
16.510790642638792,-0.9562725150569658,0.20383202302043463,9.740345190299598
16.517195650257758,-1.0307231500036746,0.2032368560072656,9.738175042875149
16.530818795703187,-1.2533864402042336,0.2088237655387715,9.726541815632888
16.537194176745317,-0.9288187604044792,0.21487416066779544,9.788456503135922
16.550847408929286,-0.661150981529406,0.2040148451780277,9.660218873927931
16.557194154731988,-0.5574187084179979,0.18593342632743393,9.700700115148553
16.570874647495714,-0.5028633066363525,0.23289410205262226,9.819302458716312
16.577191829849234,-0.7567650433460553,0.20538793895994029,9.612270805514406
16.590902330781574,-0.774862485651693,0.21012116874958237,9.678243689175236
16.597190658316876,-0.6729872109155678,0.18790426737046553,9.661259845395614
16.610930125680813,-0.493476992693101,0.24167915988457864,9.75234320651595
16.61718949307688,-0.452539648383397,0.20287077617912275,9.632507679886519
16.63095790520327,-0.28823247965571397,0.20106438886348876,9.690850685809092
16.63718834375156,-0.2531469017244292,0.21943115301486527,9.653560482413054
16.65098566660124,-0.04508906356388034,0.22986573162977927,9.75425108402115
16.657187244079438,0.1373925513189293,0.2646836813915408,9.684998020338872
16.671014308694733,0.19482038134359375,0.20530446996185808,9.682996575748295
16.677186482404956,0.2592189686503404,0.22682512176359215,9.760672132570356
16.691041066277936,0.371062116275566,0.20826958540920854,9.709024235179278
16.69718502532389,0.6201702329342282,0.23460133243325051,9.707332294665623
16.711068854760335,0.7276048121302119,0.24952175873560897,9.687831932434545
16.71718389617988,0.8625404468606748,0.21930310081378993,9.81896964337503
16.731096591435644,0.8823063803257255,0.2588035099171277,9.741344290290535
16.73718279179324,0.9744112309803536,0.24725923266631747,9.692489450323883
16.751124307561867,1.043682614664415,0.266148918846383,9.718315565313539
16.757181715416937,1.0504486765403969,0.22917610262290344,9.798390930185858
16.77115195859813,1.1408487652918484,0.24133052903651597,9.702258564807863
16.777181035650152,1.1085901504704765,0.23226676159349982,9.67959758409907
16.791181053259802,1.2038170740639005,0.27159997056625035,9.738974745587589
16.79717963375425,1.2766712421025557,0.21734120715408142,9.737428468333182
16.81120807482959,1.2016250646850994,0.2526403887417429,9.707536929377998
16.81717851478561,0.7054181101945196,0.21553840475271394,9.618442710490898
16.83123515912883,0.5706472763761942,0.203762155650975,9.70872842221118
16.837177318230527,0.5703620206157601,0.22170232198883777,9.749213420310737
16.851262901045835,0.5877266021542881,0.20237092274970017,9.626158794406356
16.8571762214855,0.5487673382694404,0.24030922439413394,9.629774091684775
16.871290603455172,0.4355937139951722,0.216343721548291,9.670690402768113
16.877175165799557,0.3384148839445238,0.1823610161892109,9.742342429757143
16.891318219592648,0.14832974715952849,0.21493446029652372,9.603854742639687
16.897174567058816,0.23548080540573646,0.2452853495567249,9.736014826172191
16.91134705029508,0.03024956171053207,0.2197980066215761,9.700269067682438
16.91717260293743,-0.012070032461436623,0.2574536880234562,9.795001349169848
16.931374020728796,-0.22738916468626455,0.22601595694868257,9.646110224840024
16.937171613175074,-0.41988910787246403,0.19749875635986697,9.707680195046647
16.951401705623848,-0.47409277584179066,0.2307828147451981,9.740317352422469
16.957170523262644,-0.5670244602160028,0.21653267996540693,9.697234506832368
16.971429432570048,-0.6249269848161484,0.24912941411498613,9.729660749582628
16.977169408720876,-0.724930827451982,0.1841276416097626,9.733624819900442
16.99145717711614,-0.7666328723027532,0.2606635840975979,9.816026266279152
16.997168279810833,-0.9939694298713064,0.20006369435932497,9.722376421261492
17.011484934496846,-0.9133521745576175,0.254357375284096,9.764457071024973
17.01716713872099,-1.1943523049767377,0.17240774921251587,9.65315921499082
17.031512703923536,-1.2199301638568238,0.21639528005936198,9.715812004464631
17.037165985357042,-0.9315736839314531,0.2122505012109036,9.723567174688737
17.051540486160153,-0.6905845563782769,0.21409608720484002,9.658602847901184
17.057164818317677,-0.5553443164934903,0.19256489179340822,9.720623256900831
17.071568283375253,-0.6558253476211152,0.2199841297619083,9.715475674671492
17.077163634308008,-0.6594355654334364,0.23229567810944252,9.680176818169711
17.09159610079797,-0.6972291409945248,0.24601552092921436,9.626885166831274
17.097162424264916,-0.619635164235068,0.19533270653096557,9.744597089473288
17.111623956525634,-0.568975028119206,0.2312407085970031,9.778368291873397
17.117161141959556,-0.3547491432707681,0.22470125020881554,9.694918557253265
17.131652073334884,-0.2991094267702022,0.23035520472922147,9.682205010313853
17.137160447018285,-0.17319676613303464,0.21772599861339298,9.72671629691779
17.151679699622438,0.03733932530714606,0.2319662533087264,9.816820960566433
17.157159427511477,0.0931383806340315,0.2437717433602589,9.66853913336261
17.171707157263885,0.22025350398158486,0.21754049224563388,9.745429987578364
17.177157776860952,0.2507004710298884,0.225384427187095,9.769853135670838
17.191735125063243,0.49627789337968664,0.22010805462292865,9.756026324174028
17.197156473732658,0.5568010539331633,0.23724948422889044,9.669987682216801
17.211763039797212,0.7428409152247911,0.21957715079565573,9.704244714417674
17.217155181920106,0.834653782389807,0.21507419855827095,9.77466791016918
17.231790958084034,0.9147318064054784,0.24810917116873205,9.733960098480615
17.237153878072053,0.9752173470156608,0.2582646339834168,9.694083613268113
17.251818899786393,1.0071023208692662,0.2040188697680348,9.70252927042467
17.257153200828107,1.0721403242118768,0.23736547022101603,9.818892392492202
17.271846805446966,1.040137799671242,0.21922125821397456,9.659374562335127
17.277151251762373,1.1729478929855164,0.2181257970591065,9.68757713025364
17.291874782728957,1.0858633655612624,0.22086795131485723,9.679099427717532
17.297149893329877,1.2884652155374052,0.21864825002231386,9.72763280329822
17.31190277356938,1.1396112646062644,0.23052347552870195,9.640485372230897
17.31714851175381,0.7928921698136995,0.19119729893826182,9.612117817659797
17.331930793714637,0.6629674363084607,0.2451739206770965,9.75284106745274
17.337147091954424,0.5824229979239455,0.22267095920819732,9.694830134301128
17.351958871169348,0.5967804482299013,0.24224271763839078,9.667564297230495
17.357145554602837,0.535205386049373,0.22547140394480222,9.580341743835431
17.371987758862385,0.5643898127684419,0.22309347196521503,9.815437728438372
17.377145534044214,0.26678462271659864,0.2113591183448887,9.706621106443015
17.392014634719022,0.2769086358519276,0.22350175601650388,9.72240279146502
17.39714301774614,0.16811729127416344,0.24530706826384782,9.710536263556119
17.412042846405523,0.07348234214139361,0.21226232393188113,9.739704719060079
17.41714148142565,-0.051962570734482995,0.2642627862177483,9.792809128679846
17.43207099489665,-0.1995065690542033,0.2176517604420161,9.658021146930441
17.437139952544705,-0.3587628008241065,0.23235257774437437,9.73719046170915
17.4520991544486,-0.5439086332636451,0.20071207145106304,9.71645016011112
17.457138403621315,-0.5312172224004352,0.22626594101821498,9.764701021818025
17.4721273384475,-0.7175971599549347,0.24538607443161864,9.641788928837856
17.477136854812642,-0.7315891162013181,0.2053496396378,9.71605133510343
17.49215702012935,-0.9043845418512156,0.20709427670101646,9.71729476267455
17.49713572861789,-1.0438441949138202,0.20849622905595336,9.704467359687964
17.512183590618474,-0.9575018285941185,0.22515426336373182,9.63815205774831
17.51713374877703,-1.1986322006261956,0.18581303902093022,9.654837768657538
17.532211913464664,-1.22165894757854,0.21554932694826665,9.754448562850817
17.537132078151583,-0.9598880292050442,0.18617999314599873,9.644907896290173
17.55224020368038,-0.6267093388524724,0.2143016644683171,9.668369792044839
17.557130406824978,-0.6400435703446709,0.18982896938688598,9.64186123984579
17.57226849988159,-0.5987608533706191,0.23634397144225933,9.851369787751024
17.577128739107938,-0.6134588697289904,0.2540403483823889,9.711063102719127
17.592296747560834,-0.6311702965052908,0.21946192322577876,9.716163673666593
17.597127522994953,-0.7421974213767716,0.23168416068420097,9.704063595396796
17.612326739762217,-0.505733006462437,0.23052364703614706,9.803239663090164
17.61712500447532,-0.3238782954019536,0.200732271656034,9.70184142404215
17.63235379568917,-0.23760156353928288,0.22377601543012302,9.70596536393869
17.63712325478154,-0.10111700954503455,0.2288365639211086,9.767725780019118
17.652382206212067,-0.011945194827172849,0.2357491822774697,9.755085128071908
17.6571214382955,0.16741076792262238,0.25401094660012286,9.733133729911145
17.6724106665179,0.20959914868247237,0.23598663661492522,9.742647802312563
17.677119583308794,0.3259319078422654,0.22451727468144103,9.810274891221901
17.692439155363935,0.4107629414700182,0.25307824007666696,9.699447358121578
17.697117716406296,0.5165891294535889,0.21348225510336885,9.640460338368662
17.712467606860596,0.7183719762734905,0.2551256347589105,9.70994739840354
17.71711630293425,0.7834073415866939,0.17420660290406131,9.759903370553092
17.732497808746803,0.8649056785550353,0.22919106348673332,9.702160807235924
17.73711354396441,0.8795373065882129,0.22736786258405633,9.635038939808586
17.752525098924753,1.0179826059780812,0.23426020327293634,9.76612612075175
17.75711157210434,1.014061527957244,0.19704824399243595,9.75381926810815
17.772553738180687,1.1347953247330111,0.21543457974806557,9.686481148536975
17.77710952262727,1.1382594543946065,0.19449376993343984,9.64447561583124
17.792582435309114,1.2007185489843506,0.20529125754437086,9.73132662468255
17.79710742706092,1.2543953112571324,0.19865102046563834,9.731858036166765
17.81261116873313,1.1273086152152916,0.22819799449673325,9.62494541652391
17.817105310238563,0.8350034150187228,0.25376756603217304,9.708799387656285
17.832639885427028,0.6174042558196252,0.24010477756161475,9.739783492300988
17.83710434266589,0.6392070683804881,0.26429701298807035,9.821847030278816
17.852669682429994,0.6184078856731761,0.22999902394495866,9.664224094539021
17.857100534230607,0.6201902190262908,0.2122942324189394,9.706690130693243
17.872697934313507,0.4825241392099401,0.21801647098969607,9.790712395219831
17.87709834281702,0.3775482564884205,0.22753074691858127,9.795067538026963
17.89272683927402,0.1762941737636385,0.24782745458333783,9.629991313639367
17.897096010214632,0.1758497050831739,0.23300935573708698,9.662857973977907
17.91275583421481,0.02272745423823386,0.21384133762669538,9.751455894838085
17.91709359838334,-0.07892807376417281,0.24006270516696038,9.731741407317863
17.932784914254594,-0.17927143171475654,0.22970619784351448,9.714575823572407
17.937091067174162,-0.487802698094879,0.2041410547103903,9.622215053805455
17.952814346502397,-0.5378664164004949,0.19011066948552705,9.715939898738668
17.95708976271021,-0.5970370000183702,0.18851502580136503,9.701145072370933
17.972842881912005,-0.6773841267492788,0.22564058986808086,9.641172137558367
17.977086273325025,-0.7863290451223276,0.21529622943392426,9.657064747920638
17.99287219351057,-0.7940101353509242,0.211901206290308,9.716080507501196
17.99708361478437,-0.9677722705455518,0.23579921340849164,9.795800969788605
18.01290148342531,-0.994039798115481,0.22463803003894844,9.664675412857916
18.017080926289093,-1.093981351818432,0.21864251332960946,9.76092339652744
18.03293082104621,-1.2017919315062133,0.21420868005638058,9.733892965205142
18.037078178861638,-0.8759221260384443,0.21418818910912402,9.761240209370659
18.052960231564914,-0.6346563500123672,0.22947790688782793,9.656451896280123
18.057075324146815,-0.5193898749540399,0.20853424778812882,9.77314946124243
18.072989968318428,-0.6307145241793066,0.20791378570846825,9.76926099021595
18.07707303729338,-0.6617098546014669,0.19713452496847336,9.72343532521199
18.093018913945645,-0.6488611052563004,0.22609405105783129,9.740281344489263
18.097070897727075,-0.5340568460281429,0.21081224457114242,9.7572356160609
18.113048828003812,-0.4506961290283756,0.2419707516593772,9.807215721365058
18.117066637102887,-0.463688486778359,0.22725460730751318,9.61910198690192
18.13307838642894,-0.2869553274760223,0.21775904568574325,9.679525888726452
18.137063486955395,-0.2150310950918012,0.2188054049660413,9.72411824659988
18.15310868575767,-0.03182498914319068,0.2363311530908128,9.76946020108791
18.157061460815754,0.07214289731728152,0.22862691430239573,9.636139117151446
18.173137415784065,0.17724520531674787,0.20589827247103687,9.634180053352509
18.177057556445444,0.22287358628985104,0.25673453882927827,9.750886506162258
18.193168262735263,0.4314313357647495,0.21639189894234082,9.726855814598464
18.197054950101403,0.6090891707938677,0.21246356383173592,9.668845368448233
18.213196986646793,0.6890238676102395,0.23244201537060852,9.65073997523062
18.217051275004295,0.8545856563828317,0.20086222998593503,9.801488402757565
18.23322702883895,0.7858063014457494,0.22239655259689844,9.662792595225007
18.237047875340426,0.959326505788919,0.23535182826333076,9.69803937517132
18.25325706360418,0.9721217825838794,0.22670324010269907,9.718932255208651
18.257044439329793,1.0809149434204763,0.2422342584460845,9.79548809861944
18.273287150288073,1.1434122959681285,0.2410736640123427,9.73070107910076
18.277040943924586,1.2166415837593882,0.2032917383027025,9.66878042594333
18.293317300653538,1.1650480142178972,0.236293062863534,9.770156486758077
18.29703738205921,1.2120809893320454,0.22096146308916415,9.767874056522398
18.313347519446694,1.1768190831076104,0.26319294631513374,9.726672049811015
18.317033750284725,0.7776537108782384,0.22108145254913336,9.631272491048076
18.333377809303222,0.6664107467216329,0.24458043015673683,9.7123067220218
18.337030046548364,0.6091103699473414,0.22269924954494175,9.777820873689624
18.353408171775943,0.6505317820654953,0.2537884551450464,9.735976102993485
18.357026269835007,0.5157786043161439,0.2334434307546749,9.592325196067046
18.37343860714889,0.4042619430220694,0.21331564118154925,9.70949547497333
18.37702242107808,0.2827056989649221,0.19781314949859188,9.748714521993877
18.393469112073053,0.2138285293504894,0.20799157900819823,9.588646906513572
18.39701850941025,0.14414589892998342,0.2305210544713009,9.661772402926132
18.41349965918195,-0.028829629460945517,0.2152795145555144,9.652077448861853
18.417014668840334,0.03429046741190729,0.24464552287281804,9.842279702537025
18.433530970996063,-0.14896044024568295,0.22282110431111474,9.636442004873013
18.437010204970957,-0.3858601952030775,0.23401338507039818,9.686222678604564
18.45356127173589,-0.5254920108963167,0.19711640701401933,9.704652938151083
18.457006098920264,-0.5366909223244842,0.23978036406349706,9.757477493568148
18.473592084825636,-0.6298216453797134,0.22867826794641138,9.635175845362587
18.477001851877123,-0.6994366781157646,0.20719774587222045,9.691652147160504
18.493623002611514,-0.8252189157646441,0.21564867084169062,9.797423919751237
18.496997511410758,-0.9735775599017427,0.1986417745824446,9.729112351848276
18.51365400757327,-0.9534737621748361,0.2323532540381234,9.693221445138562
18.516993091135713,-1.1383227547597636,0.21225186621791,9.708865014493577
18.533685074067993,-1.0995260571002028,0.20362497840971067,9.839028930732765
18.53698871117407,-0.9926723856362466,0.21543188090842685,9.712508946683938
18.553717498923003,-0.6983385056103906,0.2125266154544167,9.630700750881735
18.556983817446252,-0.6149576853551505,0.19427405316581664,9.677158977850457
18.573747688406606,-0.675966038869617,0.22832039201375082,9.758175540545288
18.576979137932046,-0.7377262076615214,0.21002349025822906,9.68833059467703
18.593779055644728,-0.6400420199508277,0.24644350527274583,9.675603957623979
18.59697433807116,-0.5134877019922192,0.20892046004032375,9.79557070505312
18.613810528443654,-0.5850009794761499,0.22195174425853573,9.712253166185116
18.616969439529363,-0.4508358054260557,0.236370898019883,9.735973702739985
18.633842094091,-0.3414430713978296,0.22659682694777497,9.618749805841306
18.63696445873677,-0.1782696428286214,0.22382464890288048,9.777300728610928
18.65387370698597,-0.07433679520023583,0.21434907360917715,9.72803894402608
18.65695982897957,0.12707337624242548,0.22426827752654888,9.7079826964922
18.673905825650532,0.21284523394300683,0.22833709513759448,9.71440446955148
18.676953968526377,0.31300409364366594,0.21109609945182467,9.79749949729966
18.693937567508588,0.461860267515375,0.23369447460877946,9.760185028198393
18.696948687946904,0.5390730989460046,0.21194289642145114,9.714562440479881
18.71396954955824,0.7118252381238231,0.25224764417636103,9.710209984691353
18.716943261790483,0.8184546796042854,0.219235890020617,9.765397260208124
18.734001662255768,0.9192293271797592,0.21920076479156184,9.735333380046269
18.736937704506058,0.9429043075675609,0.23391208056574384,9.666929319632839
18.754033918273286,0.9832010028244209,0.2093244391693514,9.690738152843252
18.756931961104513,1.007948481847278,0.24539153256385615,9.815076551209618
18.774066649703997,1.068686166934281,0.2524313296412711,9.72889352460937
18.776927365436045,1.1330731659620588,0.2366826934143648,9.679500769774439
18.794098368555726,1.1272297951069408,0.20256115620165996,9.696844688354412
18.796920624899194,1.244047015401867,0.21521255038462037,9.789468228959812
18.814131042488505,1.1229391200187382,0.22246707618830835,9.66941020621231
18.816914579556784,0.8201450442288692,0.21603801047427196,9.663674284730343
18.834163748137044,0.5579525544604887,0.2206648359959713,9.655460532426032
18.836908445060317,0.609295255588875,0.24080555436652362,9.785650679524915
18.854196562495268,0.5174642050211512,0.2136410514996923,9.68147673174261
18.856902190280092,0.6465848373970012,0.2366857200399722,9.693727698770582
18.874229509661244,0.5073922297683044,0.18847929121531315,9.767409072836426
18.87689577683261,0.3423839071773294,0.1861282644079296,9.785421438824168
18.89426229983982,0.24860079519222716,0.22801987959544154,9.707101004549806
18.896889723142273,0.1545726745431348,0.22802975759491284,9.591893342127689
18.91429554614202,0.03402086412054032,0.22817388372720274,9.767129939438725
18.916882853007642,-0.046740560987367036,0.23360052121746125,9.781824631319232
18.934328904026387,-0.13237201417120362,0.24317343045164383,9.68422348533141
18.936876085964034,-0.3974324309219781,0.22069860255530815,9.69463786373752
18.95436234705953,-0.4656271901000569,0.1868329495086601,9.740610719404978
18.956869204363276,-0.5451331919749332,0.2182809948403564,9.784477106827971
18.97439591536665,-0.7066436677998867,0.17901846530721696,9.559597100654015
18.97686219132555,-0.7562161579943675,0.22645911115618877,9.691989210295194
18.99442962107187,-0.8834386624588834,0.2094488797844057,9.654847946950369
18.99685502767303,-0.9591689524822782,0.20719995474853453,9.805285770103572
19.01446406421922,-1.0042921254648365,0.20661587884642868,9.62228804566301
19.016847811715454,-1.076103758469885,0.17797106700878512,9.68320516560008
19.034497396472702,-1.324407135358525,0.19295870669864063,9.63911866423253
19.036840366148095,-0.9405727072717744,0.19445800027043858,9.775074435709938
19.054531520783545,-0.7167533366774358,0.19583253299736006,9.671019547717437
19.056832796346708,-0.5435647034323727,0.19724327806961883,9.682624843020571
19.074565783315336,-0.6527689372083876,0.21933826561493247,9.769530515981565
19.076825084833107,-0.6952842815545547,0.20757522744402984,9.720944462845997
19.094600188099648,-0.6310084954488795,0.22995664085176332,9.657025796499848
19.096817233854487,-0.5896968913009315,0.21285216495134812,9.652802369850576
19.11463471898854,-0.4548458234258514,0.2309875463683987,9.833030612941998
19.11680935770299,-0.37107053357769804,0.2150724794413499,9.724379856019842
19.134670966818142,-0.22396161105621584,0.241974221743463,9.712585025762257
19.136801528873672,-0.20037973675194068,0.21161183466930417,9.720728272717356
19.154704818259905,-0.007089569614402815,0.2368396138357315,9.85668154540519
19.156792566557623,0.07680957350010842,0.21896575367811832,9.698746961867158
19.17473946830176,0.14299371107548048,0.21583352676339582,9.636782114446245
19.17678413554517,0.25979787755178047,0.2200530912026069,9.78229163443463
19.194774637533033,0.3584473870910349,0.22491067802441234,9.710375435567606
19.19677549731088,0.5964164595860529,0.24242695493088207,9.764007326252747
19.2148099815692,0.7172801828067321,0.22724660710164982,9.719758652829942
19.21676669918826,0.8393976783968427,0.2098689641472388,9.773210107982777
19.23484546019498,0.7959016358237185,0.22576830948918428,9.727396734906483
19.23675790219386,0.9332827070219163,0.23542913000077895,9.668391440626682
19.254882395176388,0.9103686988737124,0.22895122078757107,9.644068194409337
19.256748353877263,1.0136789859615412,0.22872726823885034,9.763728015028533
19.274917220897308,1.0541722278180918,0.24886996517582352,9.699127812385267
19.27673906325193,1.1537748196351267,0.23997047701587612,9.660487322003547
19.294953258362582,1.2051806651363604,0.23896130070588792,9.657448496970478
19.29672954429399,1.259382617522284,0.2140659730542868,9.708826821782443
19.31498949781432,1.2188196960938684,0.2486854916105189,9.772100867490614
19.31671983066506,0.8337061194549874,0.2496969285132269,9.632056959511722
19.335025929861562,0.660818984459624,0.21796856006742155,9.716343954244161
19.33670992454182,0.6172460148021043,0.2425731436724679,9.738850883045368
19.35506255521127,0.6614084137666437,0.2563639447706567,9.709435668032015
19.356699823818293,0.6101156579319108,0.2521678724574107,9.65969307139344
19.375099376764542,0.5382978928155808,0.22988903793965249,9.740741620642828
19.3766895250646,0.40469871480544295,0.20699919936920752,9.777585467117284
19.395136398369207,0.24794717230033148,0.21284617444186965,9.741875087397803
19.39667902403489,0.2038316328904876,0.24568592241225526,9.706280445584255
19.415173624725824,-0.0677164391232775,0.2029155807059643,9.664407754383086
19.416668315417276,-0.04088449212727066,0.2510689409865847,9.785111306846652
19.4352110620983,-0.19742900869056906,0.22377207070898275,9.611476082404627
19.436657391227804,-0.36761449182767103,0.21245098759515318,9.638028955152167
19.455248722191797,-0.5438273733351964,0.22643331497868113,9.700057004872296
19.456646229226937,-0.5204310592339302,0.21874532393167628,9.770253092050794
19.47528667914998,-0.6462821509756392,0.2218070282420726,9.664644098564759
19.47663552604212,-0.7534730573503304,0.20517641220065796,9.654015531798898
19.495324555714102,-0.8136895001209573,0.2049360764546494,9.745774229784164
19.49662338274939,-0.9902870324703611,0.19181575986395763,9.718204427170585
19.51536296369202,-0.9552795985053579,0.2516601317698493,9.742626365302284
19.516611481426153,-1.138073150393652,0.20459023043459099,9.717318741121876
19.535401667474243,-1.1985612762425921,0.22347659033295827,9.709421812347676
19.536599071622252,-0.9932913066371565,0.23353680986342246,9.77547110848699
19.55544232898364,-0.6223358854273582,0.2465276404454992,9.746584281272515
19.556589148310632,-0.5354512829945828,0.21502003258739133,9.740255963500747
19.575478406088944,-0.5764644897963097,0.2292700271003573,9.791536918850655
19.576575370520203,-0.6646172131057657,0.22272295361686648,9.787708147267972
19.595518056337106,-0.7023584151787469,0.21066634031595907,9.657766348588051
19.59656314718373,-0.5499483246893361,0.19098675101599996,9.758346053513982
19.615557382534085,-0.536963243450156,0.20081525523454472,9.690454305536242
19.616549580406378,-0.32943006688345117,0.21259437078951784,9.786636939596546
19.635597196081406,-0.17430956334873057,0.23879900509206847,9.55412568317168
19.636536307567308,-0.2744128068818144,0.23381666157044273,9.613481567867016
19.6556372018248,-0.31868502147172695,0.21848206214143737,9.821995070762465
19.65652280342763,-0.009029871970067925,0.21287711803293916,9.653766219560845
19.67567745492084,0.19176540293685282,0.2196917272957527,9.60551776416215
19.67650904080905,0.2678168889339548,0.20547628991891528,9.702074559545327
19.695717978206375,0.46284032627363086,0.2384145630373387,9.742552707151251
19.69649498811265,0.602757438198756,0.2511428493943184,9.654696308848875
19.715758861961536,0.7403014973993014,0.2378349531107559,9.744092369636602
19.71648132888962,0.8159654872849607,0.20797469200261146,9.79398592742511
19.735799763647748,0.8362609696598097,0.21390603433037458,9.773646935848616
19.73646689018068,0.9548641292396404,0.2490228794706817,9.653020197107473
19.755840900937436,1.0352027851199748,0.22890663035385372,9.669974108339774
19.756451492050388,1.0951077066655017,0.19834303020874702,9.761222039935168
19.77588257834753,1.0594200013307253,0.2071838619948763,9.758340781298543
19.776436332061394,1.1304240691727752,0.23160382143803926,9.779711413145941
19.795924493530947,1.10914004397512,0.235485437813515,9.658511198543177
19.79642089758182,1.3216905822675706,0.20863514956689752,9.716641829057721
19.81596669618782,1.1741599414472932,0.24476460733527539,9.69934990824665
19.816405168913803,0.875208945453796,0.21257924727391397,9.611385400741593
19.836009827514335,0.5966424863088265,0.2371709249187666,9.634046235564055
19.836389132486413,0.5824141698636388,0.20239205172659755,9.772217555864232
19.856052010510275,0.5775475861933256,0.21515690428027706,9.701632210298861
19.856372791297435,0.5723935887659907,0.19414515758657383,9.608969859732909
19.87609512834198,0.5166079314908775,0.2174888378963615,9.706564330492995
19.876356146650085,0.3546698763719446,0.17955002054168154,9.732633387127965
19.896138524504913,0.2859051122217523,0.25652255432026055,9.715330744763941
19.89633938931139,0.12949039776024696,0.22109635108669703,9.59142733661953
19.916182910200813,0.08581100050180891,0.19726717170559824,9.727981504151554
19.91632159011094,-0.07930495525248892,0.20471883465058044,9.754801008315031
19.936226640605927,-0.13466238724738697,0.23019604980970815,9.72179982686774
19.936304123146076,-0.34611352425015,0.25899094028337777,9.710119983180395
19.95627217481072,-0.4811440416738192,0.1809259030379141,9.771901963331704
19.95628687875851,-0.5160006615699118,0.21645225689677536,9.79279356842114
19.976316856991183,-0.5836764773666198,0.24145695665503342,9.695138118939298
19.976268442027735,-0.6600059564656788,0.23203564809187346,9.718810671586644
19.99636089517846,-0.7925724686529476,0.2020315605150181,9.713447024888282
19.99624896725341,-0.8977263657041837,0.2310731971836787,9.809175830378235
20.016406574784824,-1.0461530843775741,0.20683581891006256,9.640622669092894
20.01622978046225,-1.0978270275671969,0.22725811232202767,9.69703296030866
20.03645255875291,-1.2771578157933023,0.2420978107301073,9.750375128316115
20.036210224866227,-1.0025570065843632,0.2050512350091282,9.768751565072543
20.05649896009867,-0.6969075240196725,0.25623801763207005,9.705430319123943
20.056189768161577,-0.6155230701191481,0.19614481562339836,9.66470550205241
20.076545473103437,-0.6217112232492552,0.24662753920098987,9.742284865566132
20.076170104195786,-0.7951030485208676,0.19641583766504955,9.677406097682638
20.096592704467756,-0.7230325415069994,0.22602754709987208,9.6326440185726
20.09614935262166,-0.6539074860885338,0.19550314940189947,9.633944576503142
20.116640270160143,-0.44914339147238247,0.23952776513766205,9.809017583404124
20.116128206578576,-0.42849945114308774,0.19631356317495763,9.67022364669758
20.13668824550185,-0.22931333413552793,0.22361380871656625,9.66984790954085
20.136106644931687,-0.15663327134149105,0.21719584685553925,9.753547783680547
20.156736636472132,-0.015974247106750813,0.20937420394540943,9.7651285251211
20.15608467857861,0.15673106269268294,0.2315820775163254,9.762269085024753
20.176785380826896,0.170394891963181,0.2083974291726139,9.646208884391164
20.176063015569486,0.2836287376219032,0.22327295472095665,9.781205574389741
20.19683550425065,0.35222150211447445,0.21023630444856797,9.73495902553914
20.19603894387162,0.6019118711510207,0.23227190122669533,9.768379502991435
20.21688484634698,0.6432831491665014,0.21391803563446288,9.657869822866168
20.216015616885347,0.8345516954186337,0.20317811178571002,9.804523256281206
20.23693512367068,0.8554005235848217,0.19481719090370386,9.737171093645529
20.235991610001367,0.9054628715170028,0.2065741645057906,9.633053022687903
20.25698668513311,0.966017113516056,0.20865385359970184,9.63861507059134
20.25596809623782,0.992405129174767,0.2173129943797685,9.73480469022289
20.27703671146394,1.0612280215224859,0.26678312410011157,9.71131113961947
20.275942775561482,1.106633910462492,0.2667989282100322,9.677988437070104
20.297088646558247,1.1307778984921186,0.21410434043237744,9.657761437316587
20.29591823740083,1.2268445106137547,0.2224514736854439,9.696032355697017
20.31714125843161,1.2556991680444631,0.24158334504874376,9.690177347363399
20.315891288877143,0.8389214022081639,0.23060090691295906,9.652744132196245
20.337193796654347,0.6477088715055045,0.24504461264198757,9.681058775318158
20.335864849978524,0.6055913557852866,0.23112193410424242,9.803227717586683
20.35724716445869,0.6182108288334899,0.22032936150887875,9.728339109890607
20.35583781443483,0.6651404376013174,0.22984416832041302,9.685600271464866
20.37730111137163,0.5195203982664502,0.22627671205260122,9.708018106124642
20.375810197945917,0.3925804914821372,0.2003288231702811,9.797378179909067
20.3973556471607,0.24848211673471307,0.2611950036039082,9.721395433674768
20.395781976855446,0.17601025233069487,0.21874123779272223,9.694003197422262
20.41741084964204,0.07783222878574549,0.2044756313378189,9.709567109532792
20.415754376930863,0.06507535321651435,0.22681314093731952,9.782087094193471
20.4374664887868,-0.1518711270599235,0.23244724833771518,9.679468456600933
20.435723789869993,-0.4490729078909697,0.2272361741610067,9.66260270309529
20.45752284182484,-0.48511640841371645,0.21268563529981474,9.726649438936693
20.45569372449463,-0.5963050708754175,0.21211772133642637,9.72563881041689
20.477579856093815,-0.6431664835952814,0.26478419362937766,9.726133020362433
20.4756630011281,-0.7497053953964563,0.20674358707672627,9.654635635695765
20.497637539940957,-0.8102523311239633,0.1728198521191856,9.677986381997666
20.49563159190641,-1.0166115002699025,0.20721468531993298,9.707825444141495
20.517695935942744,-1.0023346836731537,0.21700090646608164,9.67587965593783
20.515599407254893,-1.2042625209646456,0.20638922994216127,9.646974525824184
20.537755540401538,-1.3005750777062635,0.19357758654469934,9.686967583573896
20.53556769094029,-0.9108999562302773,0.23982072947004612,9.820985637895566
20.557814374839598,-0.685399789440288,0.2366347901794301,9.691363401939723
20.555533486731687,-0.5385854771664302,0.20704839613159334,9.767288701878233
20.577874990805135,-0.6142055198206609,0.2316113308415632,9.70901595425
20.57549918708636,-0.6679317903517638,0.24831905269327087,9.800788490360958
20.597936270265674,-0.6996900574521172,0.22764883079950082,9.693736111033619
20.59546415293998,-0.6007680803041332,0.2155908455861853,9.753811018812437
20.617998316515976,-0.5299489548500628,0.25408431207133114,9.772960183145223
20.615428326556028,-0.368752504649903,0.21817164422190558,9.766658298566874
20.638061185971434,-0.18569842049200336,0.25593190174696373,9.752106240742302
20.635391612925602,-0.13739297329238281,0.23403021042341476,9.66539651383293
20.658125370444203,-0.07078520703480075,0.25478317907578707,9.833530396177387
20.65535575245739,-0.04789915198229656,0.2227197521224053,9.626585215503342
20.678189232259125,0.1306761000193349,0.20293137900871847,9.695229258471313
20.67531676517179,0.211682158881193,0.23196328961915758,9.710029026408222
20.698254317153552,0.43779627828885365,0.18959095897031278,9.722582569835971
20.695277075907338,0.567153882210514,0.20151147723125715,9.65162119824728
20.7183206397217,0.7057655506847286,0.2418593628846263,9.693363625302442
20.715236966245705,0.8153826322205547,0.1880074560060876,9.782655796680208
20.73838781894856,0.7826893215383752,0.19045348019964273,9.727326566641182
20.7351959445146,0.9861593809757917,0.22587168891494958,9.719261228784308
20.75845594328078,0.9886264281936071,0.20069158393027467,9.652075502366712
20.755153938252686,1.100560494486242,0.2538208640237777,9.77946815079461
20.778526098803805,1.027816975076674,0.2388195474798585,9.702327740171103
20.775111307058538,1.171465273547524,0.24314503175485286,9.73279061696101
20.798594939284193,1.1227425762601944,0.2464647139044081,9.713134881759032
20.795067180926935,1.3126509012316383,0.22792527125827824,9.746337928274226
20.818666082807994,1.2519078857865606,0.2197545255747878,9.692117210319322
20.815022157598012,0.8741592789636414,0.23001438428361903,9.682993604868066
20.838738253483527,0.6667630829830569,0.2181800278158563,9.713003841052025
20.834976072037588,0.5644104187634922,0.2345564000864095,9.700791429344187
20.8588115069833,0.6554584737015143,0.2353615946576575,9.747063843834452
20.854928890696954,0.5918858428738343,0.22877178685573726,9.634109251551061
20.878885851581074,0.5237970505273715,0.22527883267536472,9.73219297713669
20.874880779395244,0.3342430948559101,0.20534551486322114,9.732133982480667
20.898962368521055,0.2653163304730995,0.2342045171192991,9.711092615733687
20.894831690047507,0.16632549035285377,0.23332919180200562,9.65916438677977
20.919038323130927,0.03628498700327762,0.2189482444392297,9.685316531820895
20.914780168073605,-0.025124767151571796,0.2424651631747184,9.769147502848137
20.939116286937146,-0.18169744601676152,0.20509600214482301,9.639151571506277
20.934728163574245,-0.37541325613378024,0.2080627226231706,9.673711327252178
20.959195566012326,-0.5677715312755696,0.18798054304983178,9.65338256343153
20.954674848734687,-0.5018874530558424,0.20254956242336036,9.783812061923538
20.979276168042308,-0.6553560643072843,0.18223844089746777,9.70816568999137
20.974620201557094,-0.6948564985229886,0.24079955310881018,9.69926719918236
20.999358082216208,-0.7967067335257088,0.2284887190963067,9.70193597173429
20.994564929489158,-0.9694760880157276,0.20999451497704516,9.795546772687787
21.019443441863437,-1.0174661170231551,0.21770084122270966,9.701383718713114
21.014507162734215,-1.131981849042611,0.20787412416026682,9.64891179016235
21.039526359787747,-1.1835976017529646,0.25042832475871063,9.754474098456924
21.034447624721846,-1.0413997850848111,0.2300995640328834,9.776581028429794
21.059612816750075,-0.6164115649484758,0.2469683697225172,9.740440515941817
21.054387056713153,-0.5619733260368346,0.23088512789293647,9.704753973548229
21.07970078649482,-0.5341139612457277,0.24964841648223202,9.76423211783993
21.074324907215548,-0.7520800086521482,0.238940766608284,9.752649184662307
21.09979037993126,-0.7484119700818782,0.202611710897805,9.630488134044835
21.094261089168985,-0.6541962501991373,0.21500275226637638,9.686687329116957
21.11988175016429,-0.5415590629504216,0.21445533007559273,9.679083983420211
21.114196847329794,-0.35327976577497416,0.2430587456833766,9.760972790046115
21.13997519870265,-0.29992110118832743,0.22030241473955378,9.60030817340922
21.134128332396337,-0.19243002679397075,0.2411241040649995,9.72179663908262
21.160069435739263,-0.11225782702709652,0.21534782774500247,9.752262509161074
21.154059236687942,0.05577969073745592,0.2522907103987746,9.76194419710936
21.180166113634865,0.09577984583657749,0.21337044538370142,9.634768607854967
21.17398821522734,0.2797001215668898,0.20920185778495853,9.711332616945397
21.20026473923958,0.3950708057884421,0.20097800563947973,9.720393451463572
21.193915211753367,0.5742137883221287,0.22225741873501537,9.697578557515424
21.22036538547954,0.7047530368187966,0.23274231971494028,9.658075417873846
21.213840140969165,0.8135513794614497,0.20223483717635585,9.738287377093398
21.240468208366867,0.8917841013042938,0.26202119155222237,9.799632320460338
21.233763930367754,0.9750262482441147,0.260831571929475,9.697417004194158
21.26057398472512,1.044359501666136,0.2141302956741297,9.730013791005073
21.253683325285255,1.0219955605501558,0.24874239045038138,9.77314021417907
21.280680786820202,1.111276616260498,0.2584935780630161,9.769910572489765
21.27360204725139,1.1111291233563945,0.22507444689410724,9.719872914981453
21.300789647220416,1.1657132928471463,0.24485511532459434,9.69244241716924
21.29351777559896,1.3226248135976513,0.2527979742969419,9.770171932581263
21.320901667093423,1.2004527592428058,0.23805234143033635,9.69816259210177
21.313431130804076,0.8476852679389556,0.23116373539671822,9.676361422160817
21.341016234009384,0.5891476102963514,0.2541834119783611,9.693371043704971
21.333341811622635,0.6652881782074933,0.241936363170109,9.806198536292518
21.361134027338515,0.585082028933434,0.21254169386576727,9.658600019749436
21.35325090732351,0.6388196080759957,0.22539958472882463,9.658726459427136
21.381252933680507,0.4792576313855684,0.22695502092715555,9.705623320157509
21.37315557686809,0.3475458702844978,0.20492358001599065,9.762093234711472
21.401375824988254,0.15962974185948184,0.22990334932989814,9.708240872586767
21.39305790245241,0.143406404794704,0.23641735256712051,9.645126175743538
21.421501597310485,0.018991533321678338,0.22921955149841028,9.744526907211858
21.412957241701942,-0.17972482267979065,0.21441323127357775,9.706956525214245
21.441630409374458,-0.2601288224902786,0.21472493408272528,9.724946669901414
21.43285353283371,-0.5785478430720007,0.21329718924742044,9.616981096191504
21.461762158660935,-0.5902403536351563,0.21066021156623588,9.728816597264032
21.452747639640037,-0.6828458640958729,0.2015257578688487,9.736494770938295
21.481916438130057,-0.7073763799477142,0.21272879965388033,9.696030439624238
21.472633310664982,-0.7765936104796657,0.25255455302005037,9.73678012872035
21.502038810906708,-0.8642699304566616,0.21436136270827968,9.718958704943539
21.49251978203933,-0.8645065996946003,0.22092471145424608,9.767313200887846
21.522181408611672,-0.9878579304040841,0.19205147742268827,9.698126615404343
21.512401691021978,-1.1211939649858884,0.22550668807104352,9.738374434625817
21.54232818733612,-1.0355533448130354,0.23969272043826764,9.74714172314808
21.53227945738659,-0.6636804487239716,0.2195044082026459,9.782478880692262
21.562479153976625,-0.4879373577236111,0.23849992295130504,9.63405669185954
21.552152957766232,-0.44437976000793594,0.21578645007074576,9.715328851685868
21.58263448506932,-0.511723962928224,0.24541643524589518,9.762225776501689
21.572021972550854,-0.5758378011085098,0.19469193876322055,9.749979089780815
21.602795639043524,-0.4686856190362551,0.25127495399900557,9.731052837692639
21.59188721981523,-0.41212350022505173,0.21804580717152597,9.643769289272004
21.62295864552921,-0.19211810359907824,0.23099693038829333,9.754134882216414
21.611746200915967,-0.1992938388874977,0.19502324830650863,9.649226580436336
21.64312835888758,-0.056008484121921207,0.2603607053530345,9.659417838857314
21.631600571577568,-0.05415303995797804,0.20679623186216228,9.69802662231525
21.663303254405438,0.1359168861397111,0.2114221278681839,9.793605070536715
21.651449575260237,0.1332753392394551,0.24397511768795133,9.644656231796665
21.68348366963128,0.3310986382553179,0.21377327662545462,9.685258185894888
21.67129291642215,0.42872645349254224,0.22835272780231222,9.819615272604263
21.703669868776633,0.5455554583064307,0.22918652728545602,9.723031815870133
21.69113056658813,0.643844597972082,0.24906021083952332,9.69192987438959
21.723863930396334,0.6052125703306458,0.2061736842536463,9.678129284460557
21.710961759914717,0.6482816763333235,0.24943240030443972,9.82056020409541
21.74406145163332,0.6798834454941542,0.22022195764155453,9.710882149878978
21.730785364521637,0.7385344729475252,0.25872875001564655,9.75951087177233
21.764267240434908,0.7215865493821841,0.246123050534802,9.690842819548802
21.75060258888851,0.8291906737801591,0.21669261868032894,9.832937648096644
21.78448033798436,0.7827091896825503,0.2247062761295093,9.716453938943397
21.770412310023914,0.746148471145756,0.20016285233752135,9.594469537585699
21.80470115188988,0.7591238415079429,0.20842716041505902,9.629772151945687
21.790214094617497,0.7341355768050972,0.1920384182319637,9.708358218238962
21.82493011475545,0.684822441411997,0.24177487221979027,9.699910362618837
21.810007701254403,0.3674465296075671,0.21420992808126368,9.613069083607087
21.845168816460475,0.23023808365434392,0.22755828831903518,9.641078538064072
21.82979183330907,0.13297350807690955,0.20765131568699952,9.739440024757391
21.86541482315424,0.29010505838219564,0.20938723894338748,9.697860509372612
21.849566599890306,0.24770101030297428,0.2238387775693704,9.650037949698822
21.885671611389782,0.1656936536879027,0.22626611324152535,9.648310713037645
21.869331285993393,0.028954648469857326,0.23235975200302936,9.752491640291444
21.90593887005285,-0.035395437019781505,0.22122151881960492,9.628987082834168
21.88908515094513,-0.011694251788103903,0.23647324329103567,9.724381822714742
21.926217307083125,-0.10914212251281966,0.21176678064029109,9.72816044295938
21.90882747360545,-0.1128628665918019,0.23108061890858883,9.818437201004727
21.94650763425836,-0.19154570814128502,0.24519932115384532,9.674712516659742
21.928558332852568,-0.2369805239617588,0.24383397489201047,9.74601808570844
21.96681144446403,-0.34783895134783566,0.20569020738808727,9.712873820816935
21.94827376567159,-0.4090705911124488,0.23079994883231808,9.760374632848603
21.987128107372374,-0.379327231625866,0.24188220205619093,9.708137670442248
21.9679762499885,-0.41869598820727655,0.22138786003583227,9.672935605174608
22.00745979952072,-0.4503599713602491,0.210602899518271,9.763819563735845
21.987663371780567,-0.6282984860474303,0.25279047536856325,9.767389920889313
22.027807395709758,-0.30077092609036393,0.27635972256280833,9.75987699624097
22.00733399373095,-0.3081778369541626,0.21584938315415447,9.718605895225036
22.04817212998186,-0.2226729141739385,0.19553103575366407,9.691284945153189
22.02698678736447,-0.2626607727375134,0.2284251846935133,9.731107552623754
22.06855552886318,-0.22733189241263824,0.2550849888650716,9.581086262616104
22.04662158459178,-0.17416528361458442,0.21916062890685037,9.700754484256551
22.088958870049993,-0.052624405767803216,0.22526378039376985,9.72111946095123
22.06623362821066,-0.018621455779267666,0.23271025300339607,9.708371540580343
22.109383154358454,-0.10186205538929814,0.21693822407328436,9.59689730458601
22.085823674135096,-0.021443834461066038,0.20630226949327093,9.773850141706879
22.129831665412144,-0.005961465540393692,0.25000707685861967,9.751803227529816
22.105389244298514,0.08454396369827033,0.22303771705335884,9.69682049303511
22.150305835053988,0.1240916204547622,0.22566618528874635,9.62118255262057
22.12492797627672,0.1049370366405658,0.20381324879807397,9.716215680848276
22.17080809079804,0.24507126447009583,0.25000109162547546,9.837433608820191
22.144437260656332,0.2303346209103917,0.22554223064990045,9.682782699779258
22.191341749106538,0.30785556378169004,0.24751138047082039,9.72608630187211
22.163915340037505,0.24612490254973546,0.22666855046334042,9.798383457125055
22.211907851152457,0.37418690448039615,0.24062732369283782,9.790126247624645
22.18335690852039,0.22819826609000837,0.20790561662205637,9.629492953521277
22.232511156951027,0.28675137069131484,0.24409781395228033,9.677658478858906
22.20275948848259,0.29552987457562535,0.21938941258416306,9.775474792077729
22.253156154662356,0.3310615610902295,0.23545856257067327,9.708328711579814
22.22211895808964,0.33305455035380244,0.2403633155806981,9.667702916252107
22.273846678886684,0.21379637542836907,0.18327446372518377,9.633816562569722
22.24143039120086,0.2205115645911573,0.20804175477862627,9.77266369188405
22.2945879176769,0.20518974163345904,0.20406602948329855,9.673076378878823
22.260688252242343,0.17827957701961172,0.23967455287710973,9.65757415660495
22.315387000684904,0.1411395051804835,0.2058515411852766,9.622375535982616
22.27988620664608,0.10738321639879993,0.21244674121978008,9.809324401406066
22.336248046147244,0.019130963291323414,0.23183402046295182,9.652070176051236
22.29901616013636,-0.018462901890388534,0.21090233188765292,9.661224841481763
22.357180915284097,0.04027984656699471,0.24367314311652039,9.76446227024012
22.31806994715875,-0.07740037728308503,0.21488336171076894,9.74143246970726
22.37819707794025,0.04147636368399695,0.23056191449267702,9.699075029876406
22.33703798327338,-0.09499100926672553,0.18148964526700506,9.630084038146029
22.39930243758383,-0.017460636381278365,0.25891293747430155,9.769582165821188
22.355905680057962,-0.10595646995708313,0.21738958910230952,9.780716586838233
22.420516071785862,-0.014252014351440627,0.24950922598752423,9.703847797322476
22.37465971420257,-0.025418630211763535,0.22901053948334057,9.753834426942486
22.441853348124383,0.1127944570157409,0.22547754875417797,9.77319986353543
22.39328183706709,0.1015313689728022,0.25440086563504266,9.819446979726205
22.463330646209172,0.0946041867266539,0.2460207726666706,9.67823858330128
22.411749879697688,0.10041359671527846,0.2255757067858121,9.742280584976948
22.484975957867114,0.0023808536955182316,0.18791073824081522,9.694514341142993
22.430036870434453,0.07460707482440694,0.2019217936467268,9.760243228731778
22.506818363169106,0.04738327100128198,0.23730803576182566,9.631291041971544
22.448108825046518,0.06721209885125295,0.22802670333687522,9.730562405359844
22.528895983916648,0.0645502599911458,0.230663510120957,9.7442121782887
22.46592278604802,0.006677269984325041,0.20262143768449803,9.670000852270157
22.551257390674902,0.037955151540971996,0.25258823817228965,9.643856596086968
22.483423878584826,0.021384695526324403,0.2024386993005583,9.684664090669765
22.57396707927021,0.07718181781106095,0.22755164671629466,9.806562706754711
22.50053952423859,-0.0017097420380299876,0.20793203559411388,9.667721699502586
22.597104196875534,0.08257919297172511,0.2496631746500665,9.66937474384251
22.517172163614234,-0.03766194425246989,0.21348664049467161,9.633317292336338
22.620784535599558,0.11270272201148714,0.23698329876897445,9.772590949226903
22.533192900958053,0.07206464940726312,0.21306623955832668,9.677066289482731
22.645161412979682,0.0836751985521287,0.2485772427586596,9.668424325944596
22.548417351476406,0.06303486554731812,0.20634495908533926,9.79947858848064
22.67045431862696,0.04162463882070642,0.23206725489794228,9.750238525582732
22.562580747642823,0.08380514846099754,0.23734075001792612,9.738967508445308
22.696985625843983,0.0642636818313525,0.26474504201829596,9.685389416156333
22.575287379397423,0.08042728849767385,0.2316182691187276,9.801438392103977
22.72525083708896,0.0745024198124543,0.2438882611524446,9.726325745640988
22.585911666702213,0.10522823270172235,0.22540449649312405,9.734726391723589
22.756041001380837,0.06786456639278621,0.2390541614368065,9.663608392177137
22.59342236710301,0.09628731426506995,0.2069950184980602,9.816544548605638
22.79073129487375,0.10708649491758342,0.23955358117013464,9.760911197005328
22.595962695496418,-0.002632446145330855,0.1773598813659486,9.618573394721423
22.831897162694872,0.1002867773454774,0.22972242840210386,9.711598197272224
22.589844063963703,-0.02413054214181403,0.22093368514822995,9.678330671708883
22.885015766234215,0.09009087470557484,0.25438749015482187,9.758794661780916
22.56655561052225,0.003727593347687352,0.220905817384089,9.612706695270973
22.964099942200416,0.06777829898331764,0.2335046795609352,9.733487087027154
22.501187341471976,0.03277232514990177,0.1985426197947771,9.740812416062356
23.11846112127412,0.058283447480730145,0.2232245599020599,9.663893979280143
22.278662133827602,0.020464612659904347,0.2056699439446684,9.584462957527066
