Time (s),Acceleration x (m/s^2),Acceleration y (m/s^2),Acceleration z (m/s^2)
4.021345573895026,0.07135183524337575,0.08264816609794545,9.896512146229066
-0.8329874918755772,0.067498293895842,0.08163067713802287,9.914666805738392
0.5082459153518453,0.06493086102564051,0.10240682087162208,9.900730618374988
-0.27102143730463724,0.06713299551802698,0.08559852063222087,9.893984689932312
0.30093788520491194,0.058505420971371826,0.08360349757239674,9.891537239122934
-0.1255496422401795,0.056726480614123595,0.08977353670055424,9.89970473347386
0.24136417052858963,0.06019236361109948,0.09063427324285962,9.898642815597961
-0.05050920678188323,0.06463789834165137,0.10048428132805491,9.890341673451852
0.22108570141941442,0.06494220383663736,0.09373929918746196,9.882515771077134
0.00032160523145759407,0.07242599409214565,0.09484898668869839,9.890747744147513
0.2168023241293194,0.06724884443103417,0.1023114086890701,9.888457129902639
0.04001452780304077,0.07828944764476821,0.1083213928974228,9.88243171892708
0.22057593255507832,0.05942421074012517,0.08781877072443708,9.893000222582465
0.07368613017541932,0.05067029544143028,0.09195063625253257,9.883602496252795
0.22897897947694118,0.060170017526555875,0.08790108567363984,9.880944658244236
0.10372686046111783,0.06091176995843075,0.09160145178224116,9.869836953757051
0.24028079937290128,0.07207959194400243,0.08042524583673903,9.881148473731699
0.131416862048107,0.06736879229375517,0.08485011194122186,9.888386984050651
0.25351666998838424,0.07042300272014727,0.09599492680784219,9.885115295346449
0.15750155034382018,0.06610434684714996,0.09547555066067663,9.866311708763806
0.2681136390518795,0.07280460767165671,0.09356184725134943,9.877097213197564
0.18242997694735322,0.0598946960072484,0.08367050187711807,9.873376166556769
0.28368993910816104,0.05434674087760896,0.08526941112719616,9.88377218256925
0.20649712050626126,0.056691790127640494,0.09297755999577201,9.87393212415151
0.3000065500697269,0.06318656088512217,0.09054959370961273,9.871112419423813
0.22991508394790436,0.05906936323661653,0.09625794427071155,9.879682530612245
0.3168887467406506,0.06045063909474954,0.08225090681302534,9.877436419646568
0.25283739029538854,0.0794708096046663,0.08925809552313362,9.866746916095432
0.3342231205142412,0.06807034621866005,0.09851871341018184,9.87049946830941
0.2753593093371159,0.06444110439252494,0.0777079907062042,9.869015786697872
0.3519173563572261,0.053748581861368355,0.07901953751595035,9.879650971399439
0.2975597289721426,0.060219474251339944,0.08750922633366963,9.871202600357352
0.369907293135212,0.058997385360288805,0.08315696094268923,9.865715380361573
0.31949955008566044,0.06776751960218605,0.08823904666205934,9.878179320036377
0.3881435829545732,0.06375078097668657,0.0877904050618725,9.878772370392984
0.34123513021011664,0.07167276792603691,0.09481722414340092,9.881716852964487
0.40658841755268516,0.06454444589384926,0.0859482410312219,9.864684067566738
0.36277854303493967,0.07484555144926705,0.10051554963849264,9.871563391273122
0.42518674049666083,0.06520380268676043,0.08138163829474097,9.86610493988774
0.38415428841520644,0.060506707175188676,0.08180852760492253,9.86130468931036
0.4439179787501884,0.07876680193162884,0.09649121900659283,9.866643189005652
0.4053857643552006,0.06365510943339132,0.09505574100830287,9.867495632401114
0.46276588088876053,0.07761759762795169,0.0994923156779403,9.876446811830938
0.4265188117528026,0.06047768288121805,0.09531882189478368,9.872669780948872
0.48173721419571247,0.060339502523910384,0.1002525751362005,9.864238413319033
0.44755967609528613,0.06905334452648704,0.09444774621309836,9.85912615282239
0.5008043088820224,0.05955287028855955,0.07961261103780108,9.872890287838809
0.46851326112039865,0.06785904418874247,0.08406442262420753,9.865692414810761
0.5199479034821591,0.06082798196100531,0.08322352101100638,9.8859863142905
0.4893782777054068,0.06504193863442484,0.0943291033555255,9.872787182546121
0.539155537231366,0.06385925998446418,0.08691184735261544,9.859852669509902
0.5101886722472574,0.06081362019055251,0.08319395362091246,9.864637961617598
0.5584281978916259,0.06499237236681336,0.09340874657642798,9.867251361741527
0.530931772409493,0.07523789373190806,0.09559805999190894,9.866569168744315
0.5777632053176545,0.07055618057770745,0.0938190903318609,9.867523413044413
0.5516347949905808,0.05706863431225254,0.09512664389856401,9.877041783001744
0.5971442131965817,0.041200602775309514,0.08554071367021676,9.867450068119735
0.57227477962393,0.0684763045949356,0.08998079436066299,9.871998531665342
0.6165714336715596,0.06675775768278694,0.08456792731292971,9.856527306909255
0.592883757912161,0.06140158425937713,0.08014217420668834,9.867578206398125
0.6360299931535769,0.061676415772365864,0.09299423330111552,9.8955956262129
0.6134423009369951,0.061248633733511755,0.10168449928863683,9.864015067961018
0.6555294516161031,0.06748555938435709,0.09001189351794149,9.866546229929595
0.6339747818070033,0.06577307082579208,0.09281274958300328,9.87536089136996
0.6750614424807051,0.06117874553685603,0.09674542166426076,9.872509206674057
0.6544782523626247,0.06346584524115582,0.0969819721537544,9.857589509536519
0.6946344097725698,0.0672974858360434,0.08464776822305864,9.871140223700204
0.6749572123753655,0.0821315986127613,0.08259831722229061,9.872766710460803
0.7142325217548595,0.06189701671476959,0.08774492128260429,9.873984694354636
0.695403245254171,0.06384414007208117,0.09233036101219774,9.864723647045029
0.7338461117583277,0.0678639152433874,0.09049723695772828,9.86114016238954
0.7158181486954278,0.05774367513595321,0.0869126858284129,9.875273338039383
0.7534807450958441,0.0527849423377305,0.09508208444272431,9.871981348410943
0.7362139751138219,0.06841373849180153,0.08145488651272818,9.878258692559596
0.7731353387699695,0.07397298868645391,0.09046813957929385,9.84959164785994
0.7566005458543821,0.059924377154774444,0.09628200185869573,9.85270566302947
0.7928248390562038,0.05569605062853868,0.08933708449719995,9.866905453315036
0.7769623078808059,0.05317500015102213,0.10521034237280046,9.87052407760704
0.8125167119877263,0.0795144426625061,0.09196816296309601,9.86968257788395
0.7973033318542723,0.07052331613670831,0.08390474852485177,9.866611561609554
0.8322301922907149,0.06780286841189498,0.08883147274881073,9.868916164631816
0.8176259294322663,0.044587639253556584,0.08738434496598022,9.869864910198908
0.8519576991438415,0.06230862163723211,0.09407167843763074,9.844220137187657
0.8379493160471687,0.06772235632008217,0.09215552491781714,9.866158483610516
0.8717154129300841,0.05171177991919779,0.08818297015387822,9.86014202069594
0.8582531176012911,0.057035703200268816,0.09881685684249888,9.87337544105798
0.8914760020248655,0.06335105269242908,0.08925863175948336,9.861264609544392
0.8785446703123595,0.06869564018799564,0.08524246622605473,9.856465803272684
0.9112425119639178,0.0629220365515968,0.08059115489721627,9.869610775321414
0.8988078579478554,0.05590523374977686,0.0969536143870853,9.8679838935659
0.9310117849037991,0.0650212687833854,0.08485440663785082,9.863409995968368
0.9190740538633523,0.07200777853567807,0.08927291289071233,9.861194761108912
0.9508065662874079,0.06820657751385761,0.09505393639151573,9.863705514594885
0.9393231167977987,0.0657368037771964,0.10214803478170696,9.866453704592066
0.9706055061495313,0.07377957593521654,0.08838551385378499,9.866231816609
0.9595697881724714,0.06550805768757083,0.10194144411763419,9.854944479370797
0.990422985423121,0.06729692054751915,0.08641091296296573,9.857588885205452
0.9798010934354817,0.06298561611160063,0.0923794043833776,9.856022398140038
1.010238578339875,0.05459165739431074,0.09760570502552565,9.86405426226302
1.0000288767964578,0.06936567527100107,0.09167146942819807,9.854067602952375
1.0300719547436037,0.06849494357606205,0.09380226052046407,9.861181168031688
1.0202508217002395,0.06283632822161968,0.0933509637674446,9.861145423278783
1.0499033182749393,0.060681718746468244,0.08952434864804618,9.858053649789657
1.0404584867971192,0.07002734496558377,0.08830701260895257,9.869319963957468
1.0697464888646162,0.05890812755338623,0.08277893099622548,9.861264247415184
1.0606591362208744,0.0654584877489533,0.08753814140669536,9.86289944705513
1.089594750497345,0.05129842555986944,0.08828084314554664,9.865389673527748
1.080851321623815,0.05470256673117893,0.08585197227103214,9.854660009468391
1.1094528368929564,0.05876680514582372,0.08488195992596585,9.856210070546501
1.1010433174039604,0.059421146769427245,0.08919260352912788,9.855176347529707
1.1293214616124074,0.07258603739177917,0.08327562617092084,9.866470128306219
1.1212353274198728,0.07239427782279231,0.09661555057724197,9.858161526425711
1.149196787322511,0.06519747772614078,0.08530161576544854,9.852169177998267
1.1414143912030503,0.056174781966184965,0.08923612728539167,9.852472390395077
1.1690707689561999,0.0649868507803699,0.07973111817606772,9.855090638230864
1.161590673712779,0.06253075974724827,0.0796659641913414,9.852809683587926
1.1889497754572398,0.05781053058345593,0.09585137894296007,9.861155134255485
1.1817490178691565,0.06449127535348696,0.08718994275406612,9.87048239301646
1.2088271884976585,0.0576481983976598,0.096385811478795,9.853538849766892
1.2019096682551502,0.06583034304318794,0.09673092266875988,9.86349959445867
1.2287168167934224,0.06092707669461149,0.09371466232235279,9.855952378690647
1.2220628076857512,0.06712693410675034,0.09481333127620757,9.864195248041176
1.2486087845962437,0.0655549229903796,0.08457645426215119,9.859900561358005
1.2422174709720473,0.07280540182119838,0.0928292082979527,9.853630817934441
1.2685107432218192,0.06347788486773132,0.08742906338675743,9.864050423572944
1.2623722210713963,0.07780811249486311,0.08834117364976407,9.860711982234474
1.288420698206068,0.06602206457917201,0.10796082519428414,9.857027643651309
1.2825214858124772,0.06307220000984214,0.09196030471101932,9.858565892101195
1.3083279502415348,0.06986454127506338,0.09334876189657432,9.864826825477806
1.302663419056101,0.07454833691577238,0.0848107060115526,9.86063425315915
1.3282401415694478,0.06229268982610667,0.09237104626160891,9.85665186414591
1.3227981891232863,0.05868617627524136,0.09147468274051948,9.857235482339401
1.3481475770579632,0.06562408079509191,0.08542844460188834,9.855618985201815
1.342931226200308,0.06529339392264387,0.0826470870627489,9.859309694775504
1.3680713671474949,0.06370203679288515,0.08453904045711771,9.85774673516123
1.363063832849578,0.051967866782657024,0.1004352667535232,9.853166876043703
1.3879878572713125,0.06084488421939212,0.09844253917742314,9.857173758449099
1.3831906662523097,0.0784273884366096,0.09085047935897028,9.859944062425727
1.4079164462820997,0.07563630790521636,0.08509415542393897,9.86825703380709
1.4033150629020004,0.0697340245965339,0.08362374509078502,9.857636214257933
1.4278376594885225,0.05014623843498877,0.09665751090314689,9.871199803004366
1.4234364231765162,0.06656806012923314,0.09376089556423876,9.862831663809107
1.4477723387934915,0.07730882762806586,0.0973932695848093,9.860623889715537
1.4435597497640253,0.06314772914899845,0.09276181371339597,9.854760492479345
1.4677092516934853,0.07357567575121486,0.08997207113082287,9.86175874824662
1.4636796401897596,0.07200910576512241,0.10075800565906538,9.862084789809701
1.4876532552668498,0.06931868790898062,0.09220946744429513,9.8547115343586
1.4837968632264553,0.057504779061807065,0.08344342815306845,9.855160584695746
1.5075870462314727,0.06110119830405023,0.09188217421944014,9.856567195118386
1.503902432343433,0.06272343169667613,0.09685855386583417,9.86429255783071
1.5275200495056438,0.07084868116197185,0.09079499379430038,9.85868384664334
1.524006631067415,0.07035151909175914,0.0837092773403275,9.860845091432408
1.5474552657554577,0.055249502202761536,0.09483411514913491,9.871680401810739
1.5441086956938523,0.06241570740104719,0.0899708626925805,9.858333264676236
1.5674029174703008,0.07633497227811607,0.08726969606260006,9.86001314266699
1.5642186065765862,0.06798240223208181,0.09070567506191833,9.87050940183594
1.5873567146159782,0.05123348248528483,0.094517669093596,9.852033542310972
1.584325518329675,0.060038004874108694,0.08856110285131824,9.855431917508037
1.6073095940800313,0.06187858316314943,0.09216074084182395,9.866145328992726
1.6044314436889358,0.0663840827264641,0.09223084232241367,9.865516618651508
1.6272636507232272,0.07309312826721572,0.09476606093769295,9.858043257034916
1.6245252153860776,0.06701369158964504,0.08838585700509115,9.845039375260416
1.6472103030354657,0.06353401135802518,0.08698197201469725,9.860552683228748
1.6446208044495056,0.07252439716646114,0.09241100001786692,9.851406660440398
1.6671682247808002,0.0635569988737118,0.08948330551914044,9.854496778854852
1.6647112763024257,0.06590631701312667,0.0808058382638639,9.842656289058441
1.6871203958545258,0.06854749830249117,0.0888810810873041,9.863853028926444
1.6848040446727877,0.07628157350185862,0.09246516117869236,9.86179561814136
1.707080103021718,0.06439913954207523,0.09654447418065829,9.856771485942811
1.7048924397326837,0.05718048338416867,0.10340548739124511,9.85716469907938
1.7270343296548716,0.05951231169439462,0.08853359684616603,9.866561449452679
1.724985738213844,0.06352506786069231,0.09935371341833879,9.87960925064225
1.7470067798058204,0.07421338204672644,0.08804157812180352,9.853982426558723
1.7450782662597135,0.0730058222833362,0.08989958752436145,9.850737407591206
1.7669694870487864,0.06572062831366936,0.08924012742006254,9.865564855068868
1.7651642874237659,0.05025483817645106,0.09892552484463717,9.868864079648441
1.7869343321660929,0.06353738460259122,0.09185033679058237,9.857400390746824
1.7852443356709502,0.061920038924400705,0.08773910714012148,9.87169407460637
1.8068905238063298,0.07018592498119681,0.08575832714922915,9.860646425760745
1.8053248079469602,0.06966109001403731,0.0921565664673323,9.853897330309387
1.82686082375113,0.06425136509781829,0.08345366151065323,9.860254664459415
1.825407663611064,0.06265943633165265,0.07431326245515668,9.864560165643862
1.8468307855783155,0.05169122201831076,0.09335110187686671,9.86588690364061
1.8454893950667708,0.06386127330379658,0.09486672343936212,9.87570000842946
1.866801441649756,0.07491850650697622,0.09575521777184462,9.865400979235295
1.865567732564274,0.0658677954730712,0.09696388506570598,9.863976338333897
1.886771196497795,0.06314568084922798,0.09447583959739292,9.870288318999032
1.8856463427528587,0.06198214627755971,0.08904845699925015,9.868914267638605
1.906743994072095,0.07137984936006468,0.08647229765044656,9.868774844701672
1.9057228038895135,0.06530886671549407,0.08855261797861036,9.85849165444812
1.9267181548153833,0.06732124505071259,0.08796720356378648,9.855028238398095
1.9257988717674548,0.06599637514626744,0.09056628124888406,9.856744359150587
1.9466934096305144,0.06111799720853304,0.10537516076824076,9.868225657415469
1.9458763733457722,0.06077260177139359,0.08719591648361852,9.851107669273423
1.9666733086797108,0.06901882970909903,0.09152165117497002,9.862939446607195
1.965950680432922,0.05675960776468178,0.08632972199724198,9.859131363024044
1.9866514317951143,0.06213783777539039,0.0990028050186002,9.853648438644885
1.9860243257575074,0.07806258812379498,0.0951655632565856,9.86651336848274
2.0066305536520392,0.06909186673539788,0.09018803039007708,9.862922973337556
2.0060946982337673,0.05916139842214464,0.09387518980882248,9.855728248876005
2.0266109274605433,0.06270522202475559,0.09521184855857065,9.870275238215774
2.026171099597316,0.07300641264339405,0.07867068793779806,9.861386651992753
2.0466012947810865,0.07054664041751178,0.08690767449159073,9.855782783014575
2.04625651949674,0.06535434149452465,0.09609512636358901,9.865638362751069
2.0665922035329944,0.06000737398900322,0.08966093359665467,9.863390243023487
2.0663240658493227,0.05750327479612557,0.08994665984408073,9.86274239245085
2.086570301239819,0.06534985291192541,0.08802552382478745,9.862693876820732
2.0863858984792083,0.06938185756453195,0.083405798032279,9.858950908071494
2.106543479692786,0.06102630439982223,0.0973844002190104,9.865832914411296
2.1064364335049,0.05674197735339527,0.0906325065658976,9.854046681828184
2.126517898642888,0.06098453890138058,0.0951655371949945,9.862063080373883
2.1265020410677913,0.06423351369360925,0.08823954426125029,9.868359184221847
2.146506217940001,0.06015921531852549,0.09876160598695345,9.851458644074402
2.1465720400354535,0.06766744892934912,0.09304319353763525,9.862347373136496
2.1664960609065935,0.07674495407542899,0.1071859339149301,9.843597059944885
2.166638536914971,0.06660888622926163,0.10944903434965655,9.862350901415764
2.186482593020736,0.05917730401706153,0.09581920355089306,9.857884707388521
2.1867066162892743,0.06750727188791206,0.09117055000895297,9.864369213222394
2.206474328128938,0.06286667296718768,0.08782269268357754,9.852946549590111
2.2067663109201154,0.07306932778741118,0.08654361543725754,9.868204304135821
2.2264585536978747,0.05345520702800798,0.08419656141113188,9.869952324442622
2.2268265498702067,0.05757184356911792,0.09765341167353667,9.863247191340198
2.246447978091537,0.06477044571033376,0.09076886727570563,9.856193663375395
2.2468834121872217,0.07526369907710728,0.08858160479803556,9.861114776166552
2.266430433702976,0.05160618116610457,0.09714614000059109,9.862087396332464
2.266942539921638,0.06540310761992074,0.08328474626668417,9.857560218122508
2.2864217847097765,0.05950788022677161,0.0911145628655923,9.863769279795532
2.2870106395184626,0.06901888703881699,0.09399800600056478,9.868797797097905
2.3064260071616616,0.07429484131409562,0.0942354151226893,9.857379631274958
2.3070783997532414,0.06955360887570576,0.08601816421405045,9.868336731766792
2.326429773292346,0.0583559706003014,0.08801015411999291,9.868000649645783
2.327148699985669,0.08595380540155877,0.094936398647882,9.851241101287124
2.346423856947937,0.08509819602367029,0.10114557764057998,9.86334972813384
2.34720258008788,0.07570572958372343,0.07866526446625177,9.8591059164505
2.366410746956386,0.046803246311911094,0.09333051887205869,9.856027574444148
2.3672562266047885,0.05864549500336427,0.080332708772294,9.858631513187516
2.386403538633047,0.07855233166915662,0.08977107333712969,9.866926304916252
2.3873078957671887,0.06792255245321102,0.08140939301462381,9.858749253129998
2.4063971981354877,0.06081467833864826,0.08261671025326474,9.857926882532787
2.407360660291763,0.06092850027449819,0.10142165361918005,9.855681670839958
2.426387259133949,0.0692308185348318,0.09084094395313262,9.870535442667098
2.4274129237373945,0.08218521964819903,0.09595247308202537,9.86926639346974
2.446372176955269,0.06160400488373995,0.08224335765371853,9.862072531157487
2.4474620236133733,0.05743099737225644,0.0949645145427422,9.85630294303439
2.4663678722458933,0.049378170280462756,0.09505124178147803,9.866221665304613
2.4675156194060954,0.07429232401175566,0.08252551502388467,9.861021749313664
2.486363026009453,0.0625826452656326,0.08854062235908121,9.859921679407561
2.4875678394908096,0.07172365197200499,0.08989856366229587,9.851587533196176
2.5063619951305247,0.06257265906946018,0.08568822822025904,9.866155938440086
2.5076305311180835,0.07492281615253502,0.09976763856045455,9.872457567612763
2.526373167050157,0.05697388733316402,0.08716078918377386,9.856875035485857
2.527687886257469,0.05446456770001028,0.08679950972965131,9.865010348225333
2.546371236830503,0.06493142407184425,0.09238193929075655,9.87014075107746
2.5477402075427205,0.06416907187650736,0.09120488378272237,9.864126718629807
2.5663692030222895,0.07243446962297419,0.09744343472716163,9.861896585841011
2.5677890049228917,0.06172284767872394,0.10271475411655182,9.85977991853871
2.5863605386244286,0.0682668875190042,0.09473357410847133,9.849770611003871
2.587839314199676,0.07181062663288708,0.10224317742028122,9.859121601949822
2.6063656707262077,0.06105369329764667,0.09086382510394235,9.858490393185848
2.6078988723648275,0.06429617650467173,0.09140055955260071,9.862662437972991
2.6263747625240246,0.0629927517600292,0.08856855314215095,9.864120616654194
2.6279489388628527,0.07472342812705723,0.0828159249518894,9.872435922504453
2.6463748365548305,0.06008613255470582,0.10354841138794589,9.858215816139445
2.6480001989200073,0.06025481989239847,0.08768578370214153,9.861089800235103
2.6663785439223036,0.04790407906761158,0.09786642831846686,9.849342741225936
2.6680440190560275,0.05879155682891184,0.09262208820996849,9.871061463355646
2.686372657612669,0.07011358594215429,0.08861494683069354,9.869061977489617
2.688094432974249,0.06428762235186597,0.08981880074847881,9.858469655319334
2.706378909235033,0.058856043328398555,0.09053550186761436,9.854024030191031
2.7081417296934607,0.06626739080788355,0.09757129974274786,9.86255586439425
2.726374842943567,0.06807675219463212,0.10638171896671504,9.865273818286703
2.7281950263017016,0.0665985870218904,0.09252259597273008,9.857708052536848
2.746383305904051,0.07379657078462105,0.09167929108480204,9.869631732533485
2.748235323187672,0.058246332552064024,0.09959140193451879,9.868539919168573
2.766376541528809,0.060509395575114464,0.09756775875117671,9.86890790532704
2.7682815412178146,0.06908273430196134,0.09439893294087924,9.854664446035844
2.7863853972458696,0.07327433345244246,0.10226696109429267,9.852346494140702
2.788322212870997,0.060791949995643274,0.09433144607843798,9.860715991982575
2.8063863039024723,0.06625601705658803,0.09971878105609977,9.869493606898951
2.808377016497337,0.07047526191668341,0.08604964284329801,9.873131925527334
2.82639953392108,0.06980444616240963,0.09628180748364051,9.860490535508948
2.8284296283396526,0.05744686794371568,0.08913464974505741,9.85616401775879
2.8464062955148948,0.05576353837080606,0.09193752659940496,9.864311521125048
2.848481067506656,0.06165159002494662,0.08208931276046962,9.863956582325704
2.8664093296207684,0.08144541192205022,0.0945559452797132,9.865462646165458
2.8685209044371813,0.05949117065762967,0.09223064514760604,9.858002403639576
2.88641479138184,0.0546556560651384,0.09887720527212603,9.86074233362832
2.888566853352522,0.06465460361955108,0.08814369903698853,9.864145523727956
2.906420078711417,0.0640184018351869,0.09944739720094403,9.858488284056712
2.9086096436365723,0.06891086529403914,0.10066665552613144,9.850715157991674
2.926427532364227,0.06220692854506453,0.09329938105089888,9.859515409134401
2.92865415781194,0.06537396563285901,0.08574059701053466,9.874445094787296
2.9464295669708602,0.0694156465249965,0.08187567906788026,9.854838649626522
2.9486940044072467,0.06711870417686515,0.09112283915065289,9.859281708635498
2.9664352849242035,0.05774178738153232,0.09150484993672515,9.865757848518665
2.9687377020540895,0.05774493098022401,0.08687673426221293,9.852228879891468
2.986452972055553,0.0616793371938557,0.09164560086358203,9.862229525125034
2.9887871911862325,0.06324411994215741,0.08392239866537966,9.866079291595899
3.006459062078193,0.06147843221967859,0.092755711364689,9.859027176846533
3.008827200811242,0.06920886074645863,0.09067538351656701,9.873537887735413
3.0264711714659156,0.06371766745981544,0.08856058894122232,9.859648346621972
3.028857896769575,0.06965797513061947,0.08920751386324074,9.861958458593731
3.0465659251143715,0.07114770822282557,0.08118760311376029,9.856444144886298
3.050625228782358,0.07193989349372162,0.09504186495406111,9.873329542245074
3.0683590365487765,0.06701579145002677,0.08295599687223995,9.871497033299969
3.070786606331318,0.06167625230078303,0.08974493809564081,9.864962041865242
3.0883401016535337,0.06871272923786853,0.08579215845852411,9.864942821580865
3.0908300816733956,0.06788802276260505,0.08701667401882159,9.861978924857292
3.1083334663201203,0.05519881712536227,0.0954799200637902,9.877892730637399
3.1108677814413705,0.059698689147699914,0.09302318198619736,9.848539736220687
3.1283430006039983,0.07155394200388263,0.0990110876861946,9.852799588642895
3.13091651823003,0.06972660423734511,0.0955834109343542,9.85564956776226
3.1483567694448023,0.0629279682165987,0.08686193790984922,9.859106704940691
3.1509590509566543,0.06227685118338358,0.10079951553456815,9.868213003299182
3.168367730546218,0.0653374070121707,0.0973971092431037,9.855624908021705
3.1710017271427344,0.08239582995604797,0.08635165069514038,9.871801640419754
3.188380792453677,0.07001879602633516,0.08088735348139348,9.856168961309857
3.1910376979487154,0.05988318579528601,0.09232466224470089,9.859085440356962
3.2083865859202003,0.06669139425476184,0.08988995818266211,9.865772467722975
3.211077441806114,0.06616413509096175,0.09629769979645472,9.85512219607305
3.2283958693486836,0.056829452875903304,0.09673002909992956,9.857089186627109
3.23111612072377,0.07439124796981493,0.09572325905493098,9.860948360723954
3.2484027531732993,0.05617716655674225,0.08053529496919475,9.867162969501761
3.2511539788176793,0.05228276565043805,0.09319409572949439,9.873209995966834
3.268414303206482,0.05973997177126579,0.09088240503130625,9.868890602255853
3.271193523630557,0.05627582890510423,0.0796010869058601,9.859522039935175
3.288426479390127,0.051045517024404984,0.08134180811943835,9.860527155490256
3.2912332176935966,0.06371316644431965,0.0927055997154793,9.861156204985576
3.3084392322939795,0.07074568380771865,0.08896770512692892,9.85968183579969
3.3112779412950712,0.07605462737914348,0.09010465267794227,9.862850083656706
3.3284547896326373,0.0687673031360948,0.09749336980061818,9.856034390321918
3.331316163576788,0.06689096466581582,0.10101330453396869,9.860217475015506
3.348466363446604,0.07004801864171845,0.08946920996215214,9.858781331851985
3.351354463840646,0.07611135194155869,0.09195161702899635,9.860499861948817
3.3684781487995314,0.05430814164556334,0.09437557609029887,9.863145258226973
3.3713869831515257,0.06521034697704468,0.09241121312906109,9.875330778152694
3.3884879008474234,0.05616316855620605,0.08902455419606449,9.859575747061578
3.391435141479138,0.05920102489435711,0.09063892189245022,9.864881242495546
3.4085144699517627,0.06252140343218796,0.09467297458116546,9.855109617040917
3.411477588026119,0.07213577143672803,0.09533530996361425,9.862829110463807
3.4285275843336893,0.061587201064048025,0.08458848107772257,9.863798836494022
3.431517972527962,0.06828850074129252,0.08630512901801995,9.87003811740282
3.4485454309381436,0.07068065793742322,0.08820788852859412,9.872191581138717
3.4515469807856034,0.06963595653249859,0.08578027737032777,9.857824206486487
3.468545137705256,0.05742084542171286,0.09380071014745636,9.859468582727134
3.471579619223648,0.0675757160330332,0.08612765038410305,9.857486961387467
3.4885595190640433,0.06593879765002533,0.09024664346560615,9.856241353072575
3.491615117676857,0.061971950678180565,0.08444238198131004,9.852656927252731
3.5085729990631713,0.0624064073762227,0.08411142471450395,9.865934947094688
3.5116631212751086,0.06796074930060185,0.08244816253910438,9.856351473488642
3.5285973840356526,0.05526931096894485,0.08753041323893404,9.859860892378387
3.531700676968394,0.06529327324061052,0.093938425093336,9.86723344343371
3.548611710180111,0.06650603543129589,0.09588175298452484,9.873960602806001
3.551736471817448,0.06400164648464596,0.0902129161171436,9.848158902042922
3.568628024659012,0.06716758062515078,0.09785543483063214,9.860430585536786
3.571765935867501,0.06350495252183128,0.08928561824968158,9.840674692801668
3.588637104482186,0.07047984844647034,0.09220636245151319,9.858844839049015
3.591806775977457,0.059679951686805,0.1002725598564612,9.86003744885506
3.6086552306651045,0.06156517276369347,0.09496877301096374,9.859602687203935
3.611848495909228,0.06171548148870217,0.09349962890622132,9.852191240062664
3.628669143062587,0.0743631049899872,0.08913941321763005,9.864754559101065
3.6318774818988806,0.06624858320831063,0.08808605923039205,9.864503944934157
3.648681146716007,0.06196004314853298,0.08644518290703995,9.86994966118599
3.6519067027417402,0.061623307783642736,0.09787593660529992,9.866087119097408
3.668693310139537,0.0643871480970322,0.08668131024010008,9.864277941038221
3.671934815289762,0.079299026317654,0.0995247888404854,9.86667695264972
3.6887044921768832,0.062258600229889896,0.10619241222827717,9.859439982980186
3.6919698739202684,0.061426597669492725,0.09805120219353636,9.848519768840244
3.7087231847598914,0.05876737110596107,0.08698819372355099,9.857940723647786
3.712010610765958,0.06588880235350682,0.09871264670683652,9.858497822637377
3.7287443550322017,0.07324780141637491,0.09086915576788046,9.865536207290358
3.7320494734416694,0.060464137370235045,0.09900434054578597,9.847609463260632
3.74876112922225,0.0646222098737957,0.10067421406626256,9.868122834877546
3.752083748548663,0.07576280424364658,0.09005059474749158,9.87431118145018
3.768774577765505,0.07324654993689668,0.09015315713820835,9.868723171676661
3.772111764002803,0.06322230749995213,0.09133417597908015,9.860882424177747
3.7887860792228962,0.07096406547931637,0.09236075969578078,9.856048006050841
3.7921446971613473,0.06628163614812423,0.09794892314201327,9.869662652339445
3.8088084133411546,0.0644660391115609,0.08872687011611921,9.86724838403318
3.8121821205469613,0.06457161185466322,0.08697827934645048,9.860170737899075
3.828827479947816,0.0621506565401101,0.0939252509121346,9.856520076845813
3.8322183061780395,0.06363363347963126,0.08718750198807004,9.858630883421272
3.848854276397901,0.06519008471336532,0.10374529895406663,9.857075800513012
3.852257484935463,0.07084217145781757,0.09259908776662544,9.853003692165574
3.8688713265176626,0.06384996186835701,0.09884505928261378,9.85336173328781
3.8722997678806803,0.07270565044329012,0.08990292217115302,9.85947659690801
3.8888965975974714,0.054758701728319974,0.09833184591378055,9.868317143434247
3.8923310904161923,0.065673464620805,0.09028683692404145,9.855739734465741
3.9089047464161197,0.07094241053162852,0.09159479039259191,9.849104583295324
3.912355009700958,0.06558061739952496,0.08661105306701444,9.87279137688591
3.92891710066712,0.06200559368500707,0.08462103485937786,9.8611728345364
3.9323752555732665,0.06762658481406876,0.08102367678619755,9.875910843574315
3.9489301122306366,0.060234572903432655,0.07817377848546692,9.85373543733209
3.952415436642252,0.07294168150945876,0.10098661808428784,9.86305365590729
3.9689508085963863,0.066614075122815,0.09580445924976841,9.858557290932094
3.9724495721039244,0.05141153341309084,0.09862315789084068,9.860145423297972
3.9889739685986387,0.06173274572590743,0.09203640079049161,9.85913341606978
3.9924914195991845,0.06139587702443123,0.08795793601375393,9.868336081728797
4.00899977660301,0.06710155276612774,0.09430123042284298,9.85878967555397
4.012519471504962,0.06945535144922098,0.09083895646740112,9.864920566826722
4.029016430777835,0.07112945034904916,0.08825681947005502,9.868980718779438
4.032549988676745,0.0690594096612962,0.08752249118750427,9.857794670699054
4.049032434086801,0.0652594675521412,0.08400027644441439,9.86420201747091
4.052584872600501,0.07663700837016896,0.09234436669638518,9.863731668234765
4.06905284503173,0.06421106982327181,0.09241937568978835,9.865133370010701
4.07261492814403,0.05867226577064647,0.09791565444010089,9.862295045191974
4.089073298951048,0.06609970421601472,0.10244084426750368,9.86238569437686
4.0926531397225165,0.07339869374888669,0.09520427617250285,9.849108140965406
4.109094816889591,0.06555105432972402,0.0873426780421281,9.849046892585774
4.112672037267923,0.07103245245580488,0.09227960245334961,9.872615716593227
4.129101512035804,0.05353862709874398,0.09056708179470903,9.858950337822963
4.132700958424668,0.07224699405478842,0.09258003816926369,9.860305852702938
4.149120138545182,0.05416260141793287,0.09147551700075847,9.852995897231587
4.152725566017196,0.057598770555507814,0.10312899867695877,9.859210521786528
4.169136682835582,0.07564567102694002,0.0941308908501933,9.865700762138491
4.172760675535588,0.06186871636186623,0.0939688341731368,9.87337374653574
4.189167839888342,0.06198781831622331,0.09712055123553594,9.8644219819825
4.192803174987078,0.05456724282657941,0.0980108597505004,9.86658276023962
4.209192200902745,0.05389700133451756,0.09981161566371433,9.873705366436129
4.212838789765246,0.06438460369398318,0.08871432330604805,9.864350522704271
4.2292188677394265,0.06302574074605713,0.088733518753615,9.857707850871467
4.232867149047734,0.07364252889684375,0.0912699471651882,9.869193578958818
4.249229425833684,0.07008202369587338,0.10582408249999162,9.866142294603778
4.2528895776932485,0.06826947639166187,0.1011139806540814,9.863300271859348
4.269250374767067,0.06727152823805164,0.09722487332664326,9.864523716131151
4.272920309902425,0.06895741986266367,0.08872902988615844,9.851971135704305
4.289265868842382,0.06551823195523701,0.08781582136803516,9.8574763738994
4.292952572834679,0.06681743146043106,0.08915625379548592,9.863083240372903
4.309294092572887,0.06319228724991072,0.08213885885376065,9.860508203437911
4.312986714299861,0.06433935113432002,0.099367064407919,9.868434622401738
4.329311895177036,0.0777183887134386,0.09637134723296198,9.85983619890636
4.33301256991287,0.0741070319202194,0.09497726253535181,9.856366229875373
4.349334173896741,0.07914726988849634,0.09473949001340971,9.858647782746885
4.353039189244269,0.06940296481108219,0.08453989177998218,9.859910000788194
4.369346469275103,0.07084807632260805,0.09159225517235875,9.86484431273037
4.373061063705535,0.06839431996313994,0.09537601131892946,9.862874954612549
4.38936624692299,0.0573690675406587,0.08632027813112453,9.86647533279127
4.393089255137292,0.05894393915837592,0.08617078357073793,9.85567961400808
4.4093844267604485,0.058818304007107525,0.09621289323434964,9.853607404379494
4.413118802278137,0.07543511395410869,0.09336094633796692,9.863687559153423
4.429411047138443,0.06724193413621754,0.09966650539696693,9.866059140825108
4.433150866629757,0.06684918151185038,0.08622813153096962,9.870694175652872
4.44943253273336,0.0662404631555774,0.10035826650663847,9.859491227003424
4.453179813082625,0.06313912379096577,0.09996614745330765,9.853163053801593
4.469454622916115,0.06906382422617958,0.09424799202673298,9.858120926980716
4.473208313403555,0.07391650029441073,0.0973132175458275,9.870077471526251
4.489473043876228,0.06674126319738861,0.10101959672299067,9.87366294284634
4.493235376808459,0.05684924269449521,0.09667985298433542,9.853903613812731
4.509496330652858,0.07111207209006992,0.09857242067974936,9.864649900164856
4.5132649387368335,0.06430131630914106,0.09228996568262036,9.847976090709686
4.529518939752955,0.07763590765535869,0.10009386529133127,9.855911341270602
4.533292847700135,0.06659822279546965,0.10822222806246543,9.850267277468292
4.5495399874383216,0.06793632696472857,0.08994017969936507,9.867736899115885
4.5533201732523,0.06094742608103622,0.09694147807811324,9.869717883322387
4.569561506940009,0.07510823509034179,0.09486827331971925,9.855702914672285
4.573349181081344,0.06624973764262716,0.08815769756779163,9.870255701341229
4.5895912698517325,0.0657032593333527,0.09461189313143895,9.86393654618681
4.593381653641206,0.06621825685256,0.09151527425979475,9.848613827758761
4.609613662406934,0.05678146116924719,0.09200598955422903,9.848329800929408
4.6134097657354864,0.06509212967495961,0.09544404798712164,9.847755724489408
4.629636494718736,0.07174508718976023,0.08105292801125774,9.856979762513863
4.633437562442,0.080285238873428,0.09323923175720576,9.875119531664428
4.649658124359331,0.056410247474771136,0.1004078360535022,9.85171474971322
4.653467857875045,0.05432563364210022,0.08980412420069524,9.85928080883433
4.669689036199526,0.06443685460937719,0.09088265401812541,9.86014174062652
4.673498282726261,0.06656173698732959,0.09411601166746604,9.860128785766236
4.689713555159663,0.05952837814388434,0.0871158379823738,9.864190677635355
4.693533076856242,0.05779046463953338,0.08907799053362607,9.863111458302267
4.70974481768156,0.060223117516764645,0.08730197999863722,9.86314869563039
4.713558256302077,0.07249131346295093,0.08724149775773,9.86951042826364
4.729767096247056,0.0701263653609356,0.08753717702364143,9.868533908823633
4.733594969324528,0.06371352895220393,0.08913688420424917,9.856609340273325
4.749794210846718,0.058462840023114866,0.08927002567053684,9.861557391275003
4.753612885596141,0.06818584323961023,0.0919125587455053,9.857205785940243
4.769804351736038,0.0673896905683906,0.09340433541722286,9.86560976227826
4.77363512167058,0.06650870140089007,0.09701775433163658,9.856379342931143
4.789822066913274,0.06887082669818755,0.08863740174220566,9.861175235722504
4.793651485334835,0.06356465513438375,0.09730110683880996,9.866603540425245
4.809846402210616,0.06698622089969943,0.08325776082004692,9.853963312013244
4.813681450328475,0.06724746256861734,0.08668014748055403,9.854111547762308
4.829871140873587,0.06750791402664358,0.10163042463018615,9.866738342536918
4.833708195372364,0.06233332589829128,0.09258180666795733,9.871896949626635
4.84989624157239,0.05754143506905716,0.089344434063466,9.852446508911108
4.853733582450919,0.062480107985819607,0.09459088001240422,9.84940381109763
4.8699163880881375,0.06675077045402084,0.08459023205015637,9.861923627548679
4.87375705571839,0.06773788433857546,0.09951007824020955,9.86347854092771
4.889940286844291,0.06505334115959625,0.10362530795548772,9.859367636197437
4.893783378508127,0.06984760248268305,0.09098192594734235,9.865350250538063
4.909964343398632,0.061880168413554905,0.09470300463348368,9.855184157993381
4.913810286500489,0.058018183161258466,0.09571926193383037,9.86956814690589
4.929991777303391,0.06714985703328444,0.08362871799863009,9.852105356426348
4.933836991412094,0.06450905721697825,0.09431735484556825,9.859353578445921
4.950016621621017,0.06548202597222222,0.09407482370211025,9.861232570827445
4.95386291539569,0.06866995609666786,0.08298531352615034,9.857755124213284
4.970041738800983,0.07388238104727417,0.07780089715147387,9.87770928013482
4.973887071739597,0.07441393872598633,0.09711572717902026,9.856784873274474
4.99006425337571,0.05154764780601056,0.09325172134297956,9.862419808877927
4.993912269952787,0.06616474470171436,0.0995332156470795,9.881774737352163
5.010089737616994,0.07127663467071879,0.09759318327214014,9.854588205910485
5.013938219014772,0.06724248707943448,0.10003579548998626,9.864168082231549
5.030115568013048,0.07683497910724209,0.09439222972630246,9.858686141616186
5.033963612908614,0.0782127621344362,0.10554353158609116,9.852284642366353
5.050140911067762,0.06617558504061495,0.09106369036416613,9.858212758444555
5.053988828119086,0.060759964140620355,0.09777962193322327,9.862331896533135
5.070167653363314,0.07799711815069342,0.08595842736181414,9.860199355612636
5.07401443352478,0.07094819129539039,0.09305338808126659,9.856236600105833
5.090193173515043,0.06299316435387764,0.09879277859669318,9.861301583944334
5.094039353169821,0.06319493788658972,0.09204904251049559,9.861892634190413
5.110223421445519,0.05758845712661606,0.0893302615836036,9.855324901431601
5.114070949001395,0.05812246465774367,0.0956449062216751,9.864029205391155
5.130249735101714,0.07433608280970211,0.08740762661868402,9.858531417070145
5.134094658695516,0.06846239143543821,0.08726686510186722,9.855156522659088
5.150275905368624,0.06435831924496561,0.09650883839362313,9.868411851526844
5.154119497616668,0.057980444021228365,0.10030096259672833,9.848627729921757
5.170298651319567,0.06841220872157719,0.08822794053403613,9.863454773354555
5.174137783517653,0.06504601361308156,0.10047241501989485,9.85977423102706
5.190323763147095,0.054521995997589126,0.08165605358508682,9.866325884140464
5.194162732686529,0.06337453718714102,0.09022396749576186,9.864695860544966
5.210354723610433,0.0632660797254692,0.09967423578350382,9.866135470449493
5.214191773427271,0.06714441009182369,0.09522765825533072,9.857124974435862
5.230383414908503,0.07319193327639348,0.09599718877590321,9.857421347355332
5.23422121839584,0.07045951811353629,0.09958715248794361,9.870690734452076
5.250412243026448,0.05996883221185225,0.0998924318906355,9.869995308289498
5.254244700009158,0.06751512933210181,0.0911389330712137,9.857589775251164
5.270438706112854,0.060987914072400284,0.1087880310949366,9.859316546316077
5.274268422387116,0.06787655380115751,0.08331756703226528,9.855084859218731
5.290463631003173,0.06688207675667751,0.10381587201353255,9.858617110329883
5.294291840338246,0.059479979383063035,0.08390344836700775,9.864031282152835
5.310499564182,0.0700128353008307,0.08553262691007144,9.868748020546334
5.314324058518762,0.06418393349200577,0.0882574836248396,9.863023253345123
5.330524756128922,0.06909949811649525,0.07916436981928744,9.865747152178091
5.3343426907350615,0.0638693730651688,0.0922055592923829,9.859887967301052
5.350553459134457,0.0760339337841342,0.08936428621635965,9.856591833331722
5.354365654751013,0.07178506753051782,0.08626439657585971,9.86213422744778
5.370571810693849,0.07320782134610793,0.08378580307616901,9.852099206881848
5.374380445975864,0.05837794874663912,0.09526703811953185,9.865908312969099
5.390597472667781,0.07473843886500706,0.08813022344798774,9.868382501380495
5.394403905548237,0.060692498971057426,0.09293100918974394,9.857338700667864
5.4106239862592584,0.061451413848953765,0.10121334169848947,9.849653854461856
5.414424105849088,0.07628302562408423,0.09206090634896283,9.860711222378038
5.430651752378008,0.06639509372877143,0.0914462795891098,9.865712341606871
5.4344511527725805,0.06795763421321574,0.0949453837345448,9.86157672406508
5.450684293271162,0.057888191967075266,0.08402964115612276,9.867342503564027
5.4544752814368715,0.07084527907826024,0.09206555037929329,9.868235677521923
5.4707122887236075,0.06264088232891221,0.07630144200076255,9.859770452733907
5.4745001279410745,0.07250134516634771,0.0846039438853464,9.861559025229989
5.490745503370365,0.07909065879687947,0.09086757546195015,9.866055166376837
5.494521916148892,0.07684824387306079,0.08845711771781484,9.873178949857722
5.510773539441563,0.06802952066342866,0.10057781723614378,9.867613588810155
5.514548014979867,0.06718763783352695,0.08442823362886719,9.857889207194317
5.530804026044039,0.06639142967920811,0.09018465601678188,9.871992030731558
5.534571990428274,0.07445363441927878,0.08980778013008418,9.86770622713572
5.550827770301921,0.06966293055721937,0.09710466484477669,9.846270487285986
5.554593487453687,0.06318743773482892,0.09041562920306967,9.851482808149315
5.570858481365174,0.05886250524119772,0.0915534398256294,9.862964625408116
5.574616480951152,0.05829533068433368,0.0872190736862244,9.856805574137965
5.5908905804733795,0.07022960655319824,0.1044787316891405,9.86080929718446
5.594633918922535,0.06668421070931045,0.08775765533176105,9.847306077028216
5.610917636423366,0.05858291859778558,0.08555065124118154,9.857219553757618
5.614653313572664,0.07005394830828565,0.09096809415943533,9.866645244036759
5.630940728411187,0.06479811998751683,0.10490358261251957,9.863946069887419
5.634668898390652,0.06796577245722135,0.08656433328651325,9.846829630623649
5.650966785446553,0.06519518946906024,0.11011799221944978,9.867527106144044
5.654694800177221,0.07666217834793154,0.09955041202040549,9.867892101918736
5.671003355752758,0.07226508574697063,0.09173621050131962,9.864176576973149
5.674723129498219,0.06695247133250043,0.1000199826750708,9.855144713699522
5.691036127100055,0.055922970501897803,0.08538215577086207,9.863072449482948
5.6947504733175425,0.06826209368590785,0.08868845654191243,9.861872885108061
5.711066418735664,0.06685598104494557,0.09234697526999877,9.857514881487022
5.714766666966123,0.07113502472324179,0.10387757758779662,9.867742988857371
5.73109417936508,0.06661521701811252,0.09343512858532944,9.86171321242316
5.7347838871257615,0.06673642478911197,0.08883501133023756,9.860272377354168
5.75112313134758,0.06221081647443483,0.1006588131128893,9.862683926556551
5.754804145191011,0.06673539967534003,0.08992829110570837,9.86509437475979
5.771158313483021,0.06365026496491503,0.10554809642707896,9.860737471754273
5.774832694949468,0.0670163471836396,0.09118916896207899,9.859874245896691
5.7911864485907945,0.06272974467575777,0.09196754033124678,9.872387121489824
5.794849705218189,0.06394301903150748,0.0802011745626629,9.848432681988381
5.811214969723121,0.056920758067289655,0.08620009092520496,9.871328809842172
5.8148643227909655,0.051319359307675734,0.09274606406763199,9.866119805682857
5.831241151281508,0.058446212736761496,0.09469632302968013,9.871878670267398
5.8348861933682015,0.06696652793645765,0.08924501799819844,9.848334479549887
5.851274098762479,0.07089283117229833,0.09570427855357631,9.85390333110215
5.854906507375639,0.06648231552380009,0.09163964001787352,9.858873560503318
5.871304506820395,0.07612500161221872,0.09482364450557842,9.854729680993227
5.874930999820175,0.07464155087608625,0.10220523170873187,9.867806499201407
5.891338141550365,0.06813474789304277,0.0987092057655406,9.863336868404364
5.89494154003039,0.06457584945312264,0.08671246373222156,9.852008000378353
5.911367358063303,0.07283377839177185,0.0976914721947684,9.867449535700388
5.914966354269167,0.07257335132857116,0.09841689212615891,9.864088595881668
5.931399595827938,0.0636215559966133,0.09087234350391486,9.872887938544487
5.934981724917915,0.06398226513804617,0.08328341717233345,9.864750222157841
5.951424494519393,0.06744037047292516,0.08326370723377631,9.863816010374675
5.954999949338838,0.07263315728948748,0.09353318100550793,9.866911899961519
5.971453143567968,0.07454748443911376,0.10012614751922168,9.857183874746784
5.97501420412331,0.07374855536359769,0.08715449671535062,9.861015072325527
5.991484022585308,0.07076674679175947,0.0864534876704712,9.872961660101238
5.995033396291397,0.06138072263597671,0.09249023625287943,9.871701456645052
6.011515960690929,0.07038794339666679,0.10322662855023844,9.858708291672611
6.015052166311838,0.07490203607817617,0.09037931394758422,9.849207871382815
6.031552522191698,0.06711665871532324,0.0930791327920396,9.864619813402365
6.035077948582462,0.05935434308005676,0.08656559915424432,9.861925518282538
6.051586150256015,0.07038658957219214,0.10368806611453851,9.872973809985877
6.055096080937778,0.06416969678200445,0.09694522438689385,9.85494405797943
6.071621508700378,0.07033463508933427,0.08858340840523347,9.864472139837522
6.075126880425822,0.07559458951346912,0.08832156527779997,9.871537845386126
6.091661128356014,0.06446458063794973,0.0865607889990029,9.869248053106803
6.095147358537219,0.06761656661401899,0.08018926065452252,9.855238429138321
6.111701008232292,0.07316371495774074,0.09213534781251782,9.858769969283802
6.115170586912769,0.05941180346044333,0.09355565718222426,9.857817532093522
6.13173636215075,0.06275555159306274,0.0877989509326353,9.862333846374483
6.135181907463443,0.06582233948502747,0.07830212046391272,9.849757888605192
6.151759047755507,0.06565062515881821,0.10032317542717735,9.848230708185943
6.155190341728381,0.06983029431296044,0.09202958363882165,9.857206067559572
6.17178361233455,0.06375210367646314,0.09422391586617887,9.868343982910824
6.175203202360036,0.07439587487807212,0.0882978833488931,9.85475981371656
6.1918136661422425,0.07352261896292656,0.09654545354508635,9.860038970876538
6.195220732516014,0.06422346770313754,0.09522573823867134,9.863436632197498
6.2118474161340735,0.06394247802810717,0.09088643925656198,9.866624613784587
6.2152387723651294,0.06368482381045712,0.09163412509549113,9.870419921119272
6.231883565747896,0.06172799682393768,0.08703454542285319,9.85895864979378
6.235260032709983,0.0532630599872113,0.09818749091349176,9.870242627648901
6.251918888540777,0.07009893525850273,0.10673416101115603,9.854090866789567
6.255272275997441,0.06077715888929803,0.0948347550749021,9.872511891178238
6.271951164912898,0.07216104548597013,0.10394595714641743,9.86819711641928
6.275288623677167,0.08320028846236896,0.08972555543996491,9.864327728970439
6.291982703611148,0.06391956528135337,0.10084894888807133,9.865424387007469
6.295301390298205,0.056856463665578394,0.08048202201597839,9.854806650068108
6.312013112461251,0.061326036661971145,0.10364215274472162,9.85933420025968
6.3153171174582585,0.06555326019231313,0.0977633238927285,9.857930920216932
6.33204803164649,0.06874983497513606,0.0932346295189843,9.866190864144848
6.335336731096131,0.0872018131712719,0.08938448306589543,9.876017788801336
6.352088170459291,0.06429286125198778,0.09800961762176431,9.842050216194545
6.355354324948576,0.06442871028778759,0.09243495534291755,9.863023695132467
6.372122694009206,0.06697166808310329,0.09044084760760121,9.867084415369824
6.375371987932659,0.06687529456416069,0.09918285646532386,9.85827534830565
6.392165069085263,0.07032189986714706,0.09908827476342695,9.859963684709493
6.395389342345726,0.06772953663549143,0.09081250582072332,9.846993754761082
6.412195279503751,0.06411359959802851,0.09192320195869762,9.873175773494586
6.415403192713721,0.05629981371020835,0.07965966373931063,9.86300855650527
6.432234723358187,0.060774640637425374,0.08602108735518316,9.870011688138844
6.435423112980582,0.06041122882809651,0.093843390669326,9.846925005628382
6.452264791954257,0.06698485362833097,0.07944825486035008,9.863145245996147
6.45543360619877,0.06470011921168195,0.09622381968192159,9.865831133590985
6.472301080218391,0.06797819511100324,0.09742624196771645,9.865880880701432
6.475448508634684,0.05575011045193497,0.09871815915134681,9.855273131356594
6.492333932192769,0.06004111707029367,0.09393806823511491,9.870517169394423
6.495461251659074,0.05688982083111926,0.08900169884457491,9.865241831260757
6.512372943765541,0.05944513562603529,0.0914861520989013,9.860712067593413
6.515475541514373,0.061810898137284215,0.09273195539003921,9.860047668820643
6.532408630328614,0.06061845815006811,0.10122035837378296,9.855885283692762
6.535493408229281,0.06430396753145316,0.08783417916793339,9.87064482507375
6.55245040681356,0.05983655293981437,0.0947113349938529,9.859057743573173
6.555507028256062,0.07116943208415084,0.09166212286473636,9.871884639515743
6.572486000367522,0.07195941714913029,0.08390126706382424,9.861755670453187
6.5755217155616785,0.07229918182888341,0.100557629724437,9.86563340002021
6.592524371726271,0.07244022197392982,0.08881195897134671,9.871056194502733
6.595531668618645,0.0666032978969578,0.08562049468555061,9.870465325940582
6.612560242756922,0.07271613256273989,0.08139978169113307,9.868347609523347
6.615554151041402,0.05983762317231099,0.0974689699695757,9.883794797770701
6.632604264862497,0.05591882604297669,0.09430558998406605,9.866181400075162
6.6355690703237675,0.06596827850418288,0.09537058307193579,9.880117084583006
6.65264142384314,0.06848576955214508,0.09912863734671545,9.880088528686839
6.6555850045438545,0.08050832800258333,0.09431095273118492,9.871077853061697
6.67267980681152,0.07046169458242107,0.09449864895119728,9.851392873718494
6.675585268430353,0.07301213107230346,0.09622280481165449,9.87046751626799
6.692708403869501,0.0706989167106575,0.09169647817545193,9.854368763757059
6.695595728754734,0.07739862023360128,0.08089065441109136,9.864428426518753
6.712746900679287,0.08286143650668433,0.09530414929597399,9.859462655207762
6.715605222525834,0.06363800815542764,0.09757167725118245,9.858850455256563
6.732781316554804,0.06433317315362795,0.08930040824946425,9.865109727570571
6.735616579738005,0.06405726340204318,0.09768778441740977,9.885854157913121
6.7528202586542685,0.06573290736687305,0.09452582482273482,9.864911216219785
6.755627662569136,0.07417998563408155,0.08794258437262843,9.863742626486092
6.772859028439064,0.06976918721241036,0.09359729200629473,9.848384765689634
6.77563923374837,0.06616444446737076,0.08805680823353113,9.863725934357126
6.792898632164991,0.06830879658213375,0.0952075036866378,9.871565749546964
6.7956512685264014,0.060951783882238514,0.09768602217911053,9.855335382609846
6.81293901168944,0.06116665483531044,0.07880757491705902,9.86121337433785
6.815662305416082,0.06251341515390853,0.08134311879264663,9.855905441567755
6.832979106770629,0.06017639101957879,0.08521533468528224,9.867177468651569
6.835676680209592,0.06070739657793942,0.08821044876958657,9.857239707947272
6.8530280908366885,0.05796854008820288,0.09121824861419531,9.864032233240602
6.855697565788862,0.0643820712989715,0.0979661433863939,9.867481946746166
6.873073016947985,0.07089928962873798,0.0929816085194833,9.859788788860655
6.875707894112366,0.07140036910424659,0.09491993285737066,9.868253693481533
6.893114174390133,0.07703406904277024,0.09374401919930671,9.854225543562052
6.8957143646444905,0.055476252154383364,0.10311025185274351,9.860672939629993
6.913146390367208,0.055208132096075425,0.09994948890366773,9.865785243290853
6.915712965412391,0.06808277649871017,0.10453284183202227,9.865129401881799
6.933182666772258,0.07795862255476821,0.09928848093721135,9.868471399944465
6.935725067839389,0.07820618952834163,0.09437335154749243,9.845767610829421
6.9532344135332815,0.07111972232149541,0.09125153476850349,9.850977701595259
6.95574423792813,0.059358477175550865,0.09174807171082992,9.853325078722635
6.973282369096318,0.06002336094797017,0.09030775614550433,9.870981400130233
6.975765268222396,0.06854765897029072,0.09059426657551162,9.870421006252794
6.993336445820679,0.06978564375555017,0.10180180570229426,9.859817667683892
6.995776536772543,0.0712739060716017,0.08917179387300506,9.866120126049967
7.013369279549624,0.06407470850700815,0.08675785817386042,9.863981697228327
7.015774187389568,0.05562957727304279,0.08070905178130114,9.857000094851104
7.033407997554903,0.06926819914196881,0.09438983639595118,9.874785061905444
7.035776450255204,0.07160982190382038,0.08886973121011321,9.862289754062525
7.053443254368917,0.06086329906592971,0.09839405024774081,9.861286449460101
7.0557782163699185,0.06616796294008004,0.09854450460462669,9.866802867038071
7.07348546591504,0.07187985829253787,0.09067354021917759,9.858798195323486
7.075785870857433,0.0646657175303875,0.09053052526832359,9.856667867168358
7.093527203682233,0.07020863978478437,0.08831030995311066,9.862632760354773
7.095786240137856,0.05225289424759896,0.09800118720979174,9.864068557753528
7.113567375157256,0.08183908222989933,0.08969924847797223,9.862146416707406
7.115793151302726,0.06502607479212037,0.08915944016190942,9.868314463492027
7.133612147625369,0.0745937768151009,0.09666959381404194,9.860594531699126
7.135799242673339,0.07318977897077687,0.08225592114614877,9.866953485559756
7.153659951321614,0.06386306996249173,0.10091263086122565,9.864065776233861
7.155811589655865,0.06630618711728144,0.08973292800042817,9.855320010449633
7.173707229716135,0.06429635222229713,0.09163076493494302,9.855579803759928
7.175818150727152,0.06996985577970002,0.09260895206226785,9.873863150208006
7.193753468991045,0.07107692270415748,0.08730090968001483,9.858329143305241
7.195823582349153,0.06358754566946515,0.08118780021419765,9.867002944740559
7.21379630548042,0.0654785835035288,0.09636646011857328,9.856810744076714
7.215822012342909,0.05965671169922767,0.10540035733335858,9.859373148748583
7.233840416323673,0.06505796995431862,0.09533105321777872,9.854436966634765
7.235826083705386,0.05977193132102781,0.09486554496316112,9.884240200729272
7.253886671669928,0.07150896903097524,0.09315216420773319,9.876238121017176
7.255829945625776,0.06750884082712025,0.09072104255956194,9.866622119487399
7.273936107971079,0.07222201347796796,0.10490361519984055,9.875386604521943
7.275841547723764,0.06947357538475449,0.08842003516237276,9.857815039303173
7.2939897896540975,0.06832333192857583,0.08849333869640522,9.849389529666608
7.295850396288052,0.07263992617126189,0.08705253631156015,9.855367087435075
7.314041895206034,0.06414060895372803,0.08911118110116742,9.860414008863009
7.315854678628534,0.06718146283740349,0.09171209419010722,9.86091258241995
7.334087428481901,0.06919942820742689,0.09191361536486971,9.857175345018073
7.335849461711877,0.06357579040744384,0.09329084382782854,9.868748578570123
7.354129473231856,0.0639659497438272,0.09568030064982477,9.860139184140776
7.355847244253231,0.06851203628342546,0.08755975082415281,9.866065633963045
7.374178867419673,0.06548323385099174,0.0790729284938838,9.863873215527647
7.375853898656127,0.06537258049831722,0.08861813046123297,9.856476712770643
7.394231235992928,0.0644080208571098,0.08421383742852244,9.86982978708774
7.395855467346328,0.06818444537918972,0.10124900692897353,9.86166726181278
7.414281238491555,0.06987796481260464,0.08861877362953538,9.87080077905953
7.4158541293702624,0.0658134402134577,0.09216897315459019,9.854380885204655
7.43432637481439,0.06336959047327899,0.09381359432364952,9.868161766959389
7.435851775416782,0.05934803303226223,0.0804909007096828,9.871035903183477
7.454377773124767,0.056340847236376994,0.0928866401614994,9.86446535691099
7.455853494064839,0.06328460435506966,0.0940410417977627,9.863994164227535
7.474432756620702,0.07246427058889061,0.09297578379608717,9.863597614084235
7.475854868325194,0.056938239518677,0.10214042014411726,9.862665842900652
7.494484361355443,0.06636291702994172,0.08739542215922683,9.864157699406979
7.495850331783712,0.07612708108158693,0.09557462277195553,9.854159268696694
7.514533621626169,0.058026797326591883,0.0924160660678714,9.854211679071131
7.5158467621787235,0.05514309493462519,0.09404922287689477,9.860912430668318
7.534582874104529,0.06273262741678681,0.09539575644365092,9.85802628244347
7.53584383841089,0.0653934806536434,0.09095722463460854,9.8544736498893
7.554636966153268,0.06077238705460422,0.0929495927915527,9.863693535264883
7.5558476944905655,0.06993124667238104,0.0888382552567298,9.870222928750993
7.574698900805306,0.07148685779470161,0.08879075158997793,9.868610316755724
7.575845252448773,0.07351406652935256,0.09414001772638862,9.871381706226876
7.594753155415263,0.06990826432548049,0.09302385381890683,9.86081917276011
7.595841047567205,0.055496389920787176,0.09102942767716556,9.858360406692691
7.614810301146829,0.06724922212653694,0.10122864819768503,9.870265937003161
7.615833489513168,0.0701833121014239,0.08787609246613595,9.865666865487672
7.6348608853143505,0.06223502324403114,0.09513386413342448,9.870694423816369
7.635833060966978,0.06263129751024187,0.08687196247984436,9.86291407718815
7.654918471626755,0.06903678759069795,0.08029004366739625,9.862192500569062
7.65582677156141,0.06070714061403328,0.08629465481030289,9.857061299889597
7.674972418007476,0.06819496261529646,0.09572075340462508,9.864716552971636
7.675817138377227,0.061858004879556616,0.09659054310965766,9.858268835273574
7.695026395182247,0.06242965869900682,0.09804787428209255,9.859538838594451
7.695805521644177,0.07115760947599664,0.08774589838175911,9.86869314068203
7.715083464583438,0.0631272638056268,0.08908411479047024,9.86595952713301
7.715798740917828,0.06689884051811056,0.09415396111595302,9.880090790471039
7.735142151835169,0.06497443903371701,0.09152678014414245,9.869358375299006
7.735790925956141,0.06102155474389282,0.08944354625385131,9.870063127939858
7.755201067190159,0.07176119718650018,0.0906995621454699,9.868979515936672
7.755784880994078,0.07186387148742938,0.09439343426211917,9.861705086435347
7.775267741653135,0.06697104201361898,0.0873490719279978,9.859965532773355
7.775780440161639,0.07024616752495878,0.09833698706977835,9.853976170589258
7.795331302445143,0.06878546243235739,0.0879600924899682,9.855449789546245
7.7957701188944775,0.07603253179165985,0.08876007097575721,9.863459208560567
7.815399464817659,0.06166901661654415,0.09089627589244596,9.859994892810201
7.815768272137401,0.060720841376889496,0.09100795707628441,9.860212205816717
7.83545824847188,0.059448268699926206,0.09005212395865662,9.862743275009738
7.835751567387362,0.06596610806158973,0.0977373956120632,9.859925770146111
7.855524412615257,0.06220120831323522,0.08840915919302347,9.860199928976796
7.855744506534071,0.06953054908497058,0.09495595321818828,9.85739903107038
7.875581790123571,0.05765817871893186,0.09395519385426236,9.87089630218834
7.875718202351623,0.052462930920870926,0.09477579626811251,9.85373653024436
7.895644630978685,0.06901970954700998,0.09101705887588445,9.84824353931948
7.895710443765907,0.06151138908489722,0.08895128369234699,9.86135265771195
7.915709802676445,0.07356491635984377,0.08276837425593199,9.862209915102216
7.9156986452673115,0.06269401017819266,0.08352269879358161,9.862157215275976
7.935780094589795,0.07384402474287377,0.09562532059611968,9.863591268257467
7.9356865782583945,0.07586720915735416,0.08793624147006175,9.862081922197886
7.955847936333495,0.06490540811031523,0.08559168608243486,9.859427865072279
7.95566744273301,0.06752386795866286,0.09059883983032035,9.866134519270709
7.975914393394697,0.06559594390775177,0.09494053578845184,9.856735147521038
7.975642413299608,0.07238177080902726,0.08912960185502969,9.868094076543382
7.995978683012858,0.06571612637888224,0.09316522092320186,9.869859200629572
7.995620957259998,0.06278457062208125,0.0967523085753376,9.856860637771844
8.016045490643275,0.06629227263660904,0.09125835725094177,9.856475020027103
8.015599747061467,0.05445147074421595,0.10475460678679602,9.867898216758292
8.036112941776308,0.056819473387931245,0.09466907839063009,9.867411406999603
8.035578622396391,0.06779181511481557,0.08704204754539646,9.861207024603383
8.056184764479152,0.07403758258613233,0.09652903147025207,9.8558498770491
8.055557260495725,0.06995170519634462,0.08489327003792899,9.866935264774932
8.076257292602172,0.06574888152564794,0.10486126413618575,9.86804488287335
8.075532773635612,0.06877822057889163,0.09932439342426386,9.845431337855915
8.096329635857668,0.05834673380946195,0.09076007293920492,9.869995751187078
8.09550947370813,0.0718312313698948,0.0894303344212192,9.863452490351884
8.116404542837063,0.06803743699966638,0.09929218552992099,9.866691991577497
8.11548501653035,0.06345855377469185,0.09210906252101343,9.864034492578783
8.136480491533312,0.06919746426693461,0.08735958676870037,9.867499143485666
8.135461590087777,0.06525417487937626,0.0940257312639828,9.852339605770066
8.156565239850641,0.05953238918660622,0.08524342360340605,9.863905076549838
8.155443664843196,0.06517651973064902,0.09269841167775685,9.864370940458043
8.176648884769698,0.06656594669243249,0.09527991917501345,9.864215369083322
8.175415478386073,0.06752510866883792,0.09710015518282178,9.873054435236126
8.196729544580071,0.05569281436236087,0.09946617501827305,9.864814229871923
8.195388997577462,0.0645394416104751,0.09993662496462792,9.861284635753327
8.216807826216895,0.06437120678643142,0.0965298552832521,9.870107242510755
8.215351483505266,0.05701533540018494,0.09854475375188522,9.860166351988935
8.236886831651985,0.0705309164410774,0.09281207188115972,9.867194257357546
8.235320082401152,0.06574430601374912,0.10526385514775816,9.863737952469322
8.256970361847259,0.06919002576993667,0.09866019419092571,9.867578331244873
8.255281687451234,0.06241625867464287,0.0934498082305211,9.85946128948265
8.277055497017049,0.06727308158116414,0.08962373940183027,9.846498772047813
8.275252437346797,0.05567798767733004,0.09313789969527535,9.862964570897892
8.297145935695626,0.06946724611111002,0.0932731955888919,9.868646842168635
8.295216160429398,0.0636459463995725,0.08905934111777258,9.854952354498238
8.31723830609806,0.07070469038029714,0.09311817998116881,9.85458164627434
8.315184892936344,0.06346186466068167,0.09673236537718373,9.866152137225727
8.337333106293054,0.06896903455374859,0.1030942281669677,9.853182458423383
8.335152322726183,0.05916127044454297,0.09037678287524391,9.859063284236974
8.357428908634262,0.06627396930503894,0.09806578865465762,9.867671958855395
8.355125243091011,0.0653726338276361,0.08914054689295799,9.861493568651053
8.377531763351925,0.06072840147969595,0.08845149572567043,9.866121470752885
8.375082214586401,0.07168087606911382,0.08082265025303147,9.869138674608964
8.397620669560853,0.06182292719087503,0.08555130720862272,9.855467302943122
8.39502226683967,0.0669682904314616,0.09224990035529154,9.862190256750699
8.417707348218576,0.06170505328662373,0.0945214426309841,9.865089942079182
8.41495997432156,0.07508413162745176,0.08329127570903234,9.853897622343036
8.437793984125818,0.06753770105285979,0.09905005887400883,9.86540023903919
8.43491496663174,0.06531445975681818,0.09763400868615334,9.863985694501647
8.45789782498187,0.07170442125558642,0.08799966233455533,9.855094230752385
8.45486479197209,0.07111889869720493,0.08657050766015703,9.87435048848912
8.478000384802028,0.06774473390706634,0.08434359657605424,9.852222803628283
8.474813211312288,0.06076474693744757,0.09675952790960443,9.858205649485766
8.498103593444545,0.06173902823579363,0.0928330506288021,9.876274808469342
8.494749477646751,0.07018389679834883,0.09397144967155896,9.860850136441822
8.518203529519733,0.0652597111676722,0.0914189969450977,9.86860313171995
8.514692091308888,0.06667301739324244,0.09592346038611671,9.87010448365231
8.53831237171695,0.07866551150049168,0.08569193325837295,9.864458565015909
8.53463219775098,0.0566725068836523,0.10191075717135172,9.860403500286377
8.558423103109927,0.06320192449873493,0.08545301911726307,9.86343181171947
8.55457594552068,0.06563509556896835,0.0936333271115568,9.859749208813831
8.57854534968775,0.0676323166311846,0.09117484310032513,9.861951167240518
8.57451363066028,0.061447446164004466,0.08530627291761683,9.853134064220031
8.598661952461665,0.06834134928247397,0.09503026470227038,9.87151832901102
8.594446742252638,0.06767122619420513,0.09028524180283509,9.871200276999444
8.6187799179408,0.05462691241381421,0.09392698909860042,9.860229557639254
8.614372246436801,0.07441698363543288,0.10069489479850928,9.872866724153987
8.638899760974867,0.07509819409269117,0.1018666304780411,9.860633267349156
8.634301986712185,0.0579041882829648,0.10305408042526966,9.863830508229162
8.65902839732866,0.06448760776806764,0.09170240420338274,9.85726515260309
8.65423029491477,0.053716315745396356,0.08946839669951118,9.864940945711076
8.679163479417104,0.05676669924978681,0.09024189655363303,9.86467369975173
8.674162810565743,0.07394699609827297,0.10409387288515456,9.873125711008392
8.69929888921612,0.0700669513107321,0.0862107680813326,9.88622988785964
8.694080928541602,0.06817324927674383,0.08872169173975915,9.85141270776111
8.71943551100346,0.06253120619098952,0.09673010947729248,9.861320228950337
8.713993446760936,0.07345041447623452,0.08947882026167463,9.865804161780128
8.739569374566791,0.07432481156906821,0.08660235583002739,9.883229272770883
8.733897985203999,0.06581069224659993,0.0889578261897473,9.867413931640318
8.759703620666427,0.07312787347804349,0.09471487152031076,9.856156399626144
8.75380724168138,0.06064123624891445,0.1005696716709917,9.867725274301995
8.779848363603525,0.060047776498559025,0.08646131864003706,9.873166241241506
8.773710360058157,0.06018132467686829,0.09782544774318826,9.851311935872507
8.799998202778214,0.06111096202924228,0.0983374007226616,9.852954808588837
8.793602960760964,0.05986629858027003,0.08596597223085338,9.858646777548225
8.820148406679568,0.05288402558305259,0.09778534974627615,9.860340805003716
8.813491413563195,0.06072960526719941,0.09125066086433188,9.859080149401795
8.840300995335333,0.06910386064352551,0.09093777039865678,9.862591005653087
8.833379919702011,0.0649716261087353,0.10188916643182536,9.860366705928756
8.86046468103957,0.06271220392882673,0.09628373556374281,9.869451133190525
8.853274749362036,0.0551354658555727,0.08561875697973514,9.871173091526448
8.88064158447699,0.06317050622673943,0.0852536214754248,9.847128544017409
8.873158263648655,0.06139408637497935,0.08714354722132207,9.867690893441843
8.900814920193259,0.061900966950618606,0.07937598277839078,9.85660024524775
8.893039312883213,0.07100382040123768,0.1054182226130403,9.86302004281188
8.920995597820093,0.06893838925256011,0.09779981560722628,9.861495114520634
8.912906077062802,0.055809098281493906,0.09661858082307871,9.862671316636485
8.941179380039221,0.067563177344671,0.09015005114512104,9.857982117618132
8.932769838516231,0.08381349734096137,0.08640024773986521,9.866750424853661
8.96137563498836,0.07607760796373753,0.08361451266514942,9.86108757091128
8.952629029478382,0.05932119707624336,0.09000068537358476,9.863909487939127
8.981567220896308,0.059818636810799145,0.08959425048472584,9.86379675733323
8.972474408395513,0.07523593686720922,0.08709274273069924,9.859827077808863
9.001764831392467,0.06774121423189436,0.0920884665229303,9.857976243539149
8.992323897378045,0.05118651258038707,0.07824726274126467,9.856650670084932
9.021975842189585,0.061470782212063486,0.09398272455222369,9.86937478180882
9.012154006910286,0.05928984155895885,0.09113578195447444,9.864809170020866
9.042193094003784,0.07766887944688486,0.10173978927367626,9.859994968583708
9.031982263919522,0.07232514439073995,0.10699710312677392,9.859229559674576
9.062416881776175,0.0567037187606335,0.08248792308862195,9.86502988766346
9.05179455653569,0.053341685642265546,0.10133355726195764,9.866160273067957
9.082645229290494,0.058256488694413015,0.07842499637912499,9.865135041194023
9.07161009444108,0.06495249002986933,0.10450047705375115,9.860815414877923
9.10289413790399,0.06478409584185547,0.09204741813092666,9.860464640167308
9.091411882936436,0.06455977484635914,0.09527249511584561,9.858335907754686
9.123147329984567,0.06589328749679223,0.0846188295940803,9.865719603526136
9.111203891691472,0.06564504209149677,0.09868734867643933,9.867207872619428
9.14341044445385,0.06453191050262722,0.09012229423276931,9.861061421713218
9.13098025004248,0.05664084437192112,0.0946564502037035,9.857847705607
9.163680539900314,0.06948556786222206,0.08948659044349942,9.856446645850417
9.15074929673098,0.06262920441609952,0.09547467182081996,9.857691830194241
9.183967574717252,0.06567164124234763,0.09085447858049721,9.870680804620962
9.17050683465644,0.070901639319752,0.0906340771577652,9.86046863869939
9.204268379282915,0.06438972688777371,0.09198686896158657,9.867220579403943
9.190251266894503,0.05938375444634267,0.08781139043772077,9.855618138545324
9.224582074426477,0.07613777174149292,0.09267140790407687,9.85386169857412
9.209981729793167,0.06587259793754907,0.08413809350137735,9.861224911116803
9.244916254518614,0.07171693185449826,0.09566554276730496,9.861288046596036
9.22970256184411,0.06481002363377272,0.10690307617276416,9.864598440239776
9.26526507822293,0.060224012973625236,0.09700034230294298,9.865455315504898
9.249410386419704,0.0606028059298368,0.09313625608706892,9.851303087132067
9.285632296405286,0.06319572912350696,0.09656233923117775,9.86359512567473
9.269090611400326,0.06382488465831336,0.09345253609675568,9.853199538980704
9.306006615657614,0.06446505251683612,0.09543985633515427,9.847742804418472
9.288749898387339,0.058306845272929536,0.09002754077114333,9.863376213537144
9.326409714919528,0.0652290667812754,0.09044784907515825,9.86354707301699
9.308381536509335,0.056495930376461626,0.08556428766806876,9.844977376985296
9.346826046454995,0.048510158653215424,0.10295753068281298,9.849469438458096
9.327999139971238,0.05951328650949997,0.09615234951164657,9.870928998614563
9.367276934506508,0.0718527435899186,0.08521644839949269,9.876543378605422
9.347590188035397,0.06573299051229442,0.10033335455560012,9.87418738156049
9.387742248000201,0.06198768910129937,0.10058929644535097,9.867328253273772
9.367153595789699,0.06111429006157171,0.09199610190205397,9.850772594277785
9.408243387938052,0.04766132001582201,0.10032588816602739,9.859482407492766
9.3866874529679,0.058587331461698186,0.09818967308231204,9.874211771483502
9.428771154480744,0.056338814443685124,0.09231901807791039,9.85107621857267
9.406188406710218,0.07481526377782924,0.09332736334343027,9.862347847954009
9.449344381790745,0.06905458599099011,0.08518377049516934,9.86312644622305
9.425670037733463,0.06203243612275823,0.09724612049113998,9.867671341802607
9.469964519347137,0.048656174354358164,0.09594723423481745,9.847219684464752
9.445103624945862,0.06488306287563027,0.08479691878184979,9.854832181014855
9.490617725707347,0.07050583263890348,0.09698743769273459,9.864114595943992
9.464482467475964,0.06275567125628545,0.09451851992400685,9.860519667225844
9.511305236072308,0.061437374794511626,0.10087169104503746,9.860057109344032
9.483797067454526,0.0755897093673345,0.0838946055171567,9.857800121877634
9.532037322026941,0.07769986428185237,0.0829913001201129,9.863742638452358
9.50306382964918,0.05624950124464211,0.09104175004233242,9.870989715096385
9.552837658446348,0.06712264196615106,0.0775723383443691,9.854608001129682
9.52227492710852,0.06126299810351913,0.1016899940804047,9.860010620513725
9.573711191639651,0.06594053698667265,0.09694889815133031,9.863526952579578
9.541420471191975,0.07082201875100846,0.09513213953997672,9.859901674945897
9.594664957225369,0.07820812105871637,0.09212087718578217,9.859659106273867
9.560486240421872,0.07117514041673031,0.08474034745644266,9.854752215570116
9.615705448552193,0.04829606357785912,0.09020958241088521,9.861217377771572
9.579457996260942,0.05639538509061315,0.09507115661746107,9.87191614341827
9.636842985255727,0.06822302001685919,0.09593633321527009,9.871094061692784
9.598322322338959,0.06985203565322136,0.09511754609639987,9.865757051023895
9.658090073234208,0.058909792149463173,0.09872305284197327,9.849205798181957
9.617056493467366,0.055512556120501474,0.09244074990830364,9.865695037582674
9.679464628517026,0.057315448505959696,0.08774664358503637,9.878270421777954
9.635649646862102,0.07028122752861884,0.09579592671703499,9.865663191167624
9.70099709212483,0.0723555827835847,0.09809443849965087,9.874075435666915
9.654074254846124,0.06535845746489721,0.09525339472655767,9.85841541234091
9.722713704047687,0.061389523539553376,0.10752944877703902,9.854954333937458
9.672306529851843,0.06375010408315804,0.0934571941307005,9.856853425554538
9.744653630851877,0.056890240896876644,0.1075984920405704,9.854366578386676
9.690296686104668,0.07446235436966123,0.0914042637595296,9.870779844794617
9.766858881681374,0.06960366752456851,0.0909577525320025,9.87175293239849
9.707992724815146,0.07025340679123598,0.08854969302495345,9.871295850005014
9.789383234862402,0.07484205203677244,0.09244324668118553,9.870670164016355
9.72533295976058,0.0673144846344882,0.0816664680784148,9.867192155010969
9.812311872145711,0.07233824744403493,0.10085476999645307,9.863992757238684
9.742225604238142,0.061851771640252275,0.10856973465563272,9.86602370619132
9.835737533242362,0.061522492758275385,0.09774874234356051,9.851680970314591
9.758548750791872,0.05419434670259348,0.08832710947211905,9.861031770464313
9.859814162273747,0.06924759658067833,0.09069826802406417,9.866072843860053
9.774127770744016,0.0691336607420239,0.09270050611612582,9.857915772405953
9.884736982166661,0.06748765605146868,0.10232802869951421,9.875258301988152
9.788719293018225,0.06431330744125671,0.09041128642913694,9.86988820928019
9.910814060152438,0.07800852125462114,0.09030693296236535,9.863946156754084
9.801955428743451,0.05988631956943022,0.09045098832585342,9.865140804573288
9.938506042221308,0.06800319823101969,0.09881836019782829,9.856510462809412
9.813253834951674,0.06768632083365177,0.09249643532825327,9.863911145737394
9.968549335965621,0.05998676731407111,0.08636468716862294,9.860742898243794
9.821657606268923,0.06796047178431013,0.09292281163173864,9.86866691721432
10.002218510169357,0.07287273349248995,0.09921781053315813,9.862763315184743
9.825431616465545,0.06592045953398605,0.09400298719560356,9.860829252247566
10.041915548650616,0.07434551109423386,0.0945058513859173,9.869317653581733
9.82115925603411,0.07123954535054894,0.08293596319056482,9.875498773013266
10.092756882123723,0.06642147637902533,0.08671784750508715,9.855806317367977
9.800884009242438,0.06957554785282055,0.0978627714527572,9.876785753300707
10.167805215174418,0.06588872562410335,0.09626848629961211,9.873971833774235
9.74131939979653,0.07093015784674744,0.08921110842733912,9.869569765015978
10.313280777741065,0.07994774936978602,0.07768621761268292,9.867203053135311
9.534023620497841,0.07103942081222138,0.09531478206090334,9.867055697523792
10.875288383505094,0.05975060648297197,0.09399454201326898,9.86919651698256
