Time (s),Acceleration x (m/s^2),Acceleration y (m/s^2),Acceleration z (m/s^2)
16.32027070485132,0.062457993731964846,0.08733979362523307,9.865739626755166
16.10765941665583,0.05732125306130435,0.10371153325252054,9.862564658623594
16.3209275032135,0.07010520115894489,0.08630694654638117,9.872652402421771
16.14395198950431,0.06879201667278285,0.08976727037812962,9.855151905148979
16.32710659678004,0.07125289389909303,0.07711277956644297,9.879713564845185
16.17591887774765,0.06057590162132558,0.09631431304924004,9.869914863795382
16.33673587860179,0.06554219328436275,0.08478540824875243,9.876151354823547
16.205083499593158,0.06379142479883827,0.0929610580291311,9.865948125697297
16.348667777408963,0.06907177260679198,0.09226299735479657,9.876100676474952
16.232319886756407,0.0687078384662988,0.09253160732184902,9.865891640445751
16.362207872697184,0.05910750954692916,0.08602122998421416,9.875559313945441
16.258183944998322,0.06389292917380196,0.08947554516073121,9.855286902629315
16.376927836496897,0.06251876265242594,0.0793460881236245,9.874666754396609
16.283035957864612,0.05776422514517531,0.07783892040393962,9.853926896673833
16.39253877023015,0.08145884832348248,0.09542847874012222,9.871416792173692
16.307115111360545,0.15078361257177464,0.10003400450165022,9.873022092362712
16.40882707865533,0.3252625693988677,0.09419296002900925,9.876850933175568
16.330597001744867,0.4749631509374771,0.07502865345268121,9.856040978496432
16.42564685332067,0.4823120038997572,0.07985621635901853,9.856009486258047
16.353595964782542,0.35894171522313945,0.08222600280336438,9.870720340800663
16.442889823460362,0.20508628946278132,0.07821112812600943,9.871960057104749
16.376213539245434,0.13516686304105707,0.09146287418557102,9.869597182181195
16.46048075244963,0.1976675465155646,0.10223319926098148,9.873247326041831
16.39851585338644,0.21123535302395863,0.07760476174370677,9.84920252345965
16.478365024596712,0.10127781001335341,0.07270009431408538,9.863139410164653
16.420558431748177,-0.07335209132153861,0.10323067880786434,9.868743724247908
16.496482442520108,-0.20144020382697533,0.1027665199134513,9.874107485466219
16.442382437827455,-0.24295243601147437,0.10189187749665059,9.869159827627328
16.514801850072548,-0.3206407528235984,0.0884438475739218,9.882429173703887
16.464019171884537,-0.38425658737411705,0.0881449502052624,9.866351915905124
16.533289238698366,-0.3524927879309859,0.09975661691721105,9.882312678366324
16.485506889358266,-0.24777072629344854,0.08956049026871382,9.868336319612588
16.551932615735588,-0.2537333869393598,0.08798161173735215,9.859440197801046
16.506859347195604,-0.3611784667111979,0.0871977723549788,9.858747075483803
16.570704666112984,-0.4557324051897563,0.09055026570385653,9.877019720648185
16.528092368583973,-0.4649110794556816,0.09354748053065046,9.873462910178626
16.589574664197652,-0.365895390571556,0.09852702717830042,9.871827988025549
16.549209929599044,-0.25908245514476386,0.09228446220572782,9.861526968781202
16.608535927640403,-0.22062183557664414,0.09018358139957902,9.855502510320123
16.57023798522653,-0.2978127727882627,0.09408053973479635,9.859912280616642
16.627586274066836,-0.347899236844782,0.10303112385836469,9.88344830732236
16.591202983587745,-0.287390051261815,0.10122518670582392,9.878300671663307
16.646724984098892,-0.1501608929482083,0.09358885503897658,9.866464757596916
16.612092812044743,-0.0402310536486372,0.08904012537221408,9.86989581633832
16.6659247734935,0.03959183244504819,0.09495884442817024,9.880200215464587
16.63292545922969,0.08962656970460162,0.09552155288019659,9.867768633830865
16.685179207133572,0.1519415279873163,0.09173722796488977,9.869640070028698
16.65367788415158,0.24479552648532607,0.08665662573402852,9.869712832195518
16.704475402836124,0.35359599820389,0.09857234203745906,9.866570093203011
16.674388371257045,0.5142707004467986,0.0826554668060991,9.866041131908919
16.72382815427412,0.6580833723357463,0.07463243379887222,9.86256404587566
16.695051848007775,0.7026845315412882,0.08360478688075573,9.848810039649605
16.743219030753064,0.7049695544660293,0.0902689710997818,9.866994399397463
16.715681479350533,0.7511027145958746,0.08701949785547348,9.85829219005536
16.76266235141783,0.9261901630517112,0.08758476887583218,9.872242533976538
16.736278790965468,1.087733443096436,0.0816136066747748,9.854462042497552
16.782136520140387,1.163362179544392,0.07209477304146882,9.851439797279232
16.756833249391338,1.2086981923340199,0.07208481937059048,9.861141343013859
16.801642453818577,1.0014623810878227,0.07797768675803514,9.861470194506328
16.77735828947288,0.7386486360338762,0.06948944645600047,9.86300867062123
16.82117242840022,0.6658767112607851,0.0908661170506275,9.89450197529687
16.79785174107323,0.6745274898906963,0.08118396086300696,9.852026913503055
16.840736395246047,0.6959262454629699,0.07641294791179923,9.861575637294761
16.81832665142565,0.6749366247390007,0.08388490851631857,9.861366698711004
16.860331869901405,0.5093915647918774,0.07164463284278996,9.864449013950987
16.83877748020908,0.42063733201399106,0.09146622245263031,9.872214054261287
16.879943729065293,0.2507660859114277,0.07761294477589244,9.873139401028888
16.859203517305758,0.22334698616987925,0.1021692891488332,9.8788588266962
16.89957150005768,0.10947479817153068,0.09044760897109594,9.879529026373628
16.87960661092016,-0.08398633947464339,0.07800276636703278,9.864039651736698
16.91922182883007,-0.19557358401913785,0.08310628284845387,9.850508856238395
16.89999525199681,-0.37397339877667113,0.10379594158020031,9.868560035422856
16.93889631663205,-0.5279237144952728,0.09663346996661966,9.87118297025752
16.920366099522525,-0.6592993247831783,0.11469895468308029,9.876965293142892
16.958589033441093,-0.8576166809788193,0.10425608489160568,9.885358260704
16.94072009582331,-0.9797243079367679,0.1155066280371845,9.862593448235284
16.978285784531696,-1.0956011597654547,0.10536128098673736,9.87404053056368
16.961055480429103,-1.2029548510194719,0.11483411980296378,9.874078120950147
16.998007127536095,-1.3985309363960934,0.09449345150121921,9.875321640588838
16.981374701367034,-1.547583220498843,0.10300804290034829,9.879415258247622
17.017735678362286,-1.3330870195935325,0.10286966422214903,9.900817335311592
17.001683835226935,-0.9929750807736698,0.11491965551237601,9.877639577778044
17.03747986677793,-0.8784341740960986,0.09588970193952488,9.855359606560121
17.021978846907516,-0.9599774039129805,0.09765127804392412,9.848696305120791
17.05723454251469,-1.0794382025669722,0.10673162069139097,9.893369497929163
17.042263864116453,-1.134565913615238,0.1082966659298995,9.881000604256535
17.076998137777075,-1.044885151524358,0.12343428520082851,9.881647076804542
17.06253723989425,-0.8431601815557541,0.11253875111153226,9.8606724356286
17.096783574070635,-0.6183156542626468,0.08707826977999987,9.862733965757762
17.08280237630832,-0.4559376358435877,0.08595951170983365,9.878265824632743
17.116570322436925,-0.3547127790714837,0.10710890056213515,9.853274077254966
17.10306555902326,-0.24948006110357523,0.08967466068741999,9.859374447324289
17.136370580113816,-0.025734070704470764,0.08257733330909553,9.881975880990574
17.123305740087105,0.14621537312200236,0.08289869053235221,9.879436383808025
17.15616854575302,0.24325684506574777,0.08585782349977529,9.839595972942458
17.143537172528287,0.4818482054606308,0.10015427773347428,9.870908770642142
17.175976231568676,0.7343526841447726,0.06639664981207165,9.86925008193529
17.163759024396587,0.9756990627051003,0.08317401441302608,9.865828745641073
17.19580059690349,1.1453500835585368,0.07752186551224605,9.856450858043656
17.18398148201384,1.5474269700628276,0.07182356959798598,9.873853060397817
17.2156301110823,1.6900080562242625,0.04370300689350751,9.85810418844741
17.20419721830525,1.7523108261194251,0.05422413661639502,9.867455725508155
17.235469113018194,1.8459376981158808,0.08725222626938245,9.868207129930148
17.224400552948012,1.8532293993791185,0.06271260765157238,9.853967856393568
17.25530715140834,1.9556168280986685,0.06530550811570131,9.863614491270843
17.244600394151867,2.1404921906410217,0.05757229094356932,9.86009195494211
17.27515712493459,2.0034179829641903,0.0627352810062938,9.845280050833031
17.264793050311592,1.6781100995510432,0.07954014064467316,9.860135700420692
17.295010454159016,1.5528837661871124,0.058927563995965715,9.849989741404467
17.284981247804573,1.4502748623292652,0.0770281901268232,9.851075046988047
17.314876645188995,1.362956186651768,0.06395461092974715,9.883271953092505
17.305170387606545,1.2317537471834947,0.09979318234415778,9.859882398149786
17.334743930443775,0.9255288413195485,0.08260505486912118,9.868591077554887
17.325348128269233,0.7606072862916542,0.0845620883615538,9.83849644442064
17.35462004066019,0.6247709052238413,0.07063830272808101,9.884272944425781
17.345524476897136,0.4899681054707673,0.07843559822457848,9.880626488985344
17.374492141638914,0.25546178137862263,0.0995164405024913,9.856256968625217
17.365686028527065,0.05399213393188982,0.1027583360183198,9.8611489011992
17.39437282004435,-0.2392276214379902,0.07556839553737808,9.882889810101547
17.38584902006853,-0.4573814516716414,0.08222015621430274,9.852832301598498
17.414254619534276,-0.6295090200344768,0.1332052883505012,9.892379612711295
17.4060075588773,-0.976770281580623,0.09945977093523684,9.872580937436924
17.434150997728697,-1.148004549227984,0.11221333599323813,9.872871692609646
17.426167776141998,-1.231952572407839,0.11319301502353159,9.887741895388723
17.454048924015368,-1.6677715553042747,0.09645383429661367,9.858656109354364
17.446323775091386,-2.0776088743895027,0.10002214954967838,9.872578098069312
17.473948810498428,-2.305952234512158,0.13546483283824184,9.882683203312222
17.466470201503977,-2.3655812452016325,0.10919965793663512,9.87653919601853
17.493850634001628,-2.4997560530146385,0.10791651094818282,9.879975246956525
17.48661458495823,-2.1583051454250275,0.1243797393072597,9.88631476083636
17.5137595991927,-1.5832811208069717,0.11298920246153336,9.88990203385103
17.506757871272097,-1.472811859348375,0.09752683161579442,9.84873104917093
17.53367312763252,-1.5037076785503551,0.11247438075009754,9.869558988822629
17.526895559422574,-1.470139957546371,0.10622569946349267,9.865525496816828
17.553590940073224,-1.4162403955334781,0.1158795787808552,9.878491488158414
17.547034314154953,-1.0974519125326017,0.10548193197103138,9.899832809965092
17.573503551091015,-0.7835899653980134,0.11153529636961279,9.868513521245875
17.56716275552469,-0.6867059665611724,0.08435243136588952,9.863399413508981
17.593426519485984,-0.5925740585048291,0.10701030123910459,9.845540471766476
17.587291176928385,-0.3817243475156784,0.06998520304607783,9.873115946572957
17.613335423754066,-0.15447400457458552,0.09274621192798715,9.895773418768613
17.60740398272424,-0.035769313952655334,0.13119924662434332,9.837615232495772
17.63325405257986,0.12732765939109233,0.06907983311236753,9.893252175677082
17.62752197553175,0.4345037556539881,0.08269775861638838,9.87088641845876
17.653175640418425,0.6322248786017878,0.091805491718292,9.841941305099521
17.647638048978365,0.8792339048672961,0.08822923231562022,9.868525122361783
17.67310461874136,1.1182526629434812,0.08358058899036752,9.870682043479677
17.667754723157987,1.3204606764721112,0.08198358742300109,9.859956303032675
17.69303679840759,1.5776635246028963,0.04360981165357567,9.856762194517461
17.68786622106447,1.8389236764459604,0.06127248659832854,9.868834622088112
17.71296516924776,2.161585003805077,0.08656629724781335,9.855494514222459
17.707977090698282,2.2695673187156227,0.048602895122985955,9.857499826731944
17.73290236642774,2.3806255870400417,0.05088461164498444,9.836559472647874
17.728088873361262,2.2498710318368444,0.06904919471869952,9.833818797074457
17.752846104050228,2.1867833322302737,0.07171512040090228,9.8616497510851
17.748203514153666,2.1409471693203206,0.07483328430809268,9.869361156088834
17.77279628920946,1.8943627608761113,0.07641886630465335,9.875847642085805
17.768318662934732,1.6432378690186142,0.07945363155254255,9.84484674828519
17.792747255199625,1.5222847653125389,0.07534163387601334,9.87488821391963
17.788424061155492,1.4942267516368997,0.06410329145384101,9.84134991293139
17.812687531865276,1.2019030248439266,0.0588920773160841,9.85744636600285
17.808521497752967,0.9056862277563409,0.08849845066990233,9.853476373731075
17.832627929020532,0.7402002075695343,0.09895464548421172,9.894906669701827
17.828611410785815,0.7022720299703608,0.07373692478303032,9.858843428015861
17.852567164094335,0.5784878265765199,0.0842387599393508,9.849506585205196
17.848706269230004,0.4560693276968675,0.08304782592183761,9.88103095372955
17.87252106299527,0.1489018866640561,0.08602031782161192,9.86489789022805
17.868802326208925,-0.07010827609152812,0.10737825093205366,9.860738602628446
17.89247007440019,-0.2573482420990197,0.06823944008098975,9.88599588366061
17.888900174053013,-0.47999334177445957,0.07927938124654493,9.851994251555084
17.912432112746295,-0.6523103306926337,0.12699834418899217,9.878007442353205
17.908997536019346,-0.9732436212996727,0.07930222995571821,9.875299531232407
17.932383034999734,-1.1908318383425334,0.1100298665396567,9.861347984794179
17.92909097285116,-1.240367495031039,0.1122773696415435,9.877576000696322
17.95234949709561,-1.5653960993299807,0.10440654423949679,9.868828033411479
17.949189459317225,-2.018493023401637,0.09850223224474615,9.869086546964459
17.972313189035518,-2.2584806276813656,0.1376119404251786,9.892999350260306
17.96928300193543,-2.363950657485944,0.12201999200550395,9.886748369323161
17.992285123011587,-2.5327496430053484,0.1200384742278214,9.879096473176473
17.98936757331092,-2.184309063959445,0.12303612635667502,9.89689614392133
18.012234354823672,-1.580366146846797,0.12645925771382346,9.859270067962461
18.009440922342314,-1.4173173447807066,0.09533915782490691,9.856622825805715
18.032219575595526,-1.425120641863952,0.088908427171103,9.87434747120929
18.029560534885974,-1.3987677931586393,0.11546730672018306,9.88238552992936
18.05218840883217,-1.5280518741315992,0.09324993694106602,9.882083458357293
18.049645468418667,-1.3412820931873428,0.0994098107881744,9.870776574037983
18.072154406404774,-0.8820395312607421,0.12070594177414999,9.88853895900142
18.069733392403105,-0.6899328190488822,0.08898183303060962,9.857865427781052
18.092130999826388,-0.596092351287728,0.10790390020151364,9.878199954441959
18.089811365553896,-0.3989778455598432,0.07217368342541262,9.862293865535161
18.112085187190644,-0.2035605124507644,0.08974285365276935,9.873367612245621
18.109887118814143,-0.04865043134071784,0.11593323692426734,9.841778159230326
18.1320584005435,0.15266558413611583,0.08005832895806278,9.882032286390556
18.129957468283838,0.4723376803657648,0.08098227540592927,9.879668246040161
18.152011510223502,0.6414375281560419,0.08414577205077178,9.843726034216461
18.15002657857157,0.8899692818186721,0.08687920286265259,9.869967428004635
18.17198861553,1.1446266551646895,0.0829521882521659,9.874478881678083
18.170102936474734,1.282075162053206,0.08388093401005069,9.858593437978422
18.191960333089945,1.5177984582800623,0.06032211064407975,9.863397598236661
18.190189721626712,1.7914705448956472,0.059055617831404165,9.870784789579545
18.211950599390136,2.1767718421195257,0.08081577813288164,9.850031914104056
18.210270628285585,2.305135387579552,0.04569600814591572,9.837246563583678
18.23192100997611,2.3461652508605706,0.059251931663042046,9.86073568006129
18.23034517472832,2.243066276278634,0.06133293197298773,9.848884339672733
18.251894183671414,2.1999440166253996,0.060720829508333546,9.860881507011081
18.250406134370557,2.1305899187430413,0.05111677831218024,9.865242570492647
18.27185966433272,1.8525747240043202,0.0601841238278614,9.855807818602255
18.270473415513198,1.552259339825417,0.07418478307513726,9.861240954025611
18.29184382886657,1.4907841932288404,0.09179173750129208,9.89009473766938
18.290547376616146,1.502711115919061,0.05269241118634118,9.865372578314568
18.311828291329814,1.3297517876709968,0.05869855536680059,9.808388414750064
18.31061982650159,0.9962405080793671,0.08316784842955574,9.883569425655613
18.331801325518768,0.8073056773341208,0.0944503086172532,9.869984903113462
18.33068561093071,0.6331460371592995,0.09456337754235258,9.867295491320979
18.351781448166705,0.5094310231142445,0.07304278332826218,9.849992476180086
18.35074748689985,0.4645721330249127,0.07777925939616769,9.867994377208886
18.371752999724958,0.1997571976146862,0.08168554787913122,9.860172490498226
18.37080766128211,-0.07095066548672929,0.1130821500382087,9.847390385502225
18.39173350644433,-0.23551964082018276,0.08187305837204516,9.90396161668327
18.390869851739666,-0.4651009106248037,0.07125285167662673,9.852784885650006
18.411705040078452,-0.6193525795870749,0.12601451572311803,9.865745714515224
18.410928447565766,-0.9158609937217592,0.10844667817794822,9.866336322190612
18.431688413250047,-1.1679724797695434,0.11175127040886094,9.880134885405656
18.430996413377244,-1.2383970544386451,0.11604518159908683,9.892988915261363
18.45167543415201,-1.5782651841522144,0.1052805806843484,9.861890696394743
18.451059482495296,-2.059541144307288,0.10299427301594352,9.859132965531781
18.471659777829682,-2.2819347042310825,0.12878915674230101,9.892029503096879
18.47112183367489,-2.364236967926741,0.13653055398173033,9.878657399693285
18.491644862070494,-2.5370355769888624,0.11720356326994709,9.880621465020642
18.49118414091882,-2.1828012106597865,0.12526195484021668,9.904201712025149
18.511630902682818,-1.559416553264277,0.12602469295661292,9.870953181938884
18.51124755767844,-1.409195160527512,0.09831738784631472,9.842443037907634
18.531621416108088,-1.4310828642685647,0.09907224409418458,9.89014499352866
18.5313088579406,-1.380224712035106,0.11249844658742582,9.889563642839025
18.55160774448191,-1.448722868521941,0.11316829538810996,9.886066215844242
18.551363682268907,-1.3996563888616953,0.1168950437193551,9.860524517660732
18.571591513850148,-0.9528281918409086,0.12464342203076081,9.882703878338976
18.571420970260007,-0.6800726951684318,0.10058341640471723,9.873316780912429
18.591582292808678,-0.5885141577922735,0.10654664488437096,9.842974406808574
18.591487379911108,-0.42509053243096434,0.08719019173601898,9.876035902568855
18.6115754430948,-0.16323079708073787,0.08127480261583513,9.874284966415345
18.611547562130557,-0.04545403857454696,0.114857218703009,9.837154856206014
18.631574814715336,0.12119607634276726,0.0665403904080137,9.87919510584284
18.631610871291006,0.3988220882960236,0.09526412169738382,9.867707681193625
18.651558422612712,0.6245358959804019,0.07738635693638278,9.84544450971796
18.651658235916628,0.8751098451330033,0.06994685396487955,9.87074070654853
18.6715448876588,1.12374338751064,0.07407866046508486,9.859936117122484
18.671711675114874,1.2988884964099006,0.07834844100266765,9.854790027827354
18.691529268948408,1.5236706372686348,0.04558252846106228,9.837560153161949
18.691763097831497,1.8892833841746652,0.0723214363324962,9.870911323482101
18.71152135336214,2.2968637490285593,0.08858269557434857,9.857363280692208
18.71181808785356,2.3038912852458893,0.03638012149111296,9.85669876932699
18.731514034407883,2.295322065928897,0.05188915522532802,9.841096586069611
18.731872358244125,2.1704074712336565,0.07797848426607155,9.841124251456389
18.751504303615572,2.2301162851321314,0.06828581461441476,9.872473327191614
18.75192453996768,2.211879312958655,0.0565099584445996,9.856002531013232
18.771500198590587,1.7986267089084342,0.06682828531415994,9.84066037465482
18.771982601994026,1.5182602374783083,0.07471640306923222,9.879278652598241
18.791499854421094,1.495391691264032,0.07641352629500058,9.871731343311811
18.792039523492846,1.4792346364211384,0.05113610987898579,9.877711625511143
18.811496442297557,1.3348103460615404,0.04867692865092414,9.82180741063239
18.81209072037313,1.0136120423257076,0.09030958004626607,9.860529033324438
18.831488826635645,0.772402536960605,0.09304275372983073,9.886242932944363
18.83213778852292,0.6392552209315648,0.09011504462731511,9.875969432569942
18.851478993942962,0.5578602898198713,0.07593581383899965,9.887374570667637
18.85218855041137,0.44896072371346213,0.07341214118283959,9.849269242070262
18.871475833576252,0.169397001873281,0.08463943743236647,9.895412115014723
18.872239453373556,-0.03550302715988178,0.10968192610054193,9.861614410836594
18.89147203989125,-0.2352940728240644,0.08364719967709905,9.889998835050038
18.892290013272003,-0.4864744842134335,0.096676263503361,9.844562799348543
18.911468395182347,-0.7005997277508601,0.14152165344917486,9.883681747530426
18.91233651122755,-0.9684951755543375,0.09121456078871047,9.88173589851568
18.93146250042707,-1.1339724336418038,0.1096551659067667,9.875306576347086
18.93238583254481,-1.2334438298769679,0.09702359970322046,9.879833191246162
18.951460106655205,-1.683757877752192,0.10188817243263622,9.867129990442645
18.952435345315898,-2.1372939729047085,0.11729445705503812,9.8794764562956
18.97145853732739,-2.307093346007031,0.12903542986904015,9.897155865205171
18.97248415095992,-2.344876566467635,0.11888693467780712,9.87109172887066
18.991457014689022,-2.484573615655189,0.10878901165653677,9.88230059999115
18.992532491106154,-2.0901772530034632,0.12483236475460796,9.901463710397143
19.011455930033797,-1.545612659115052,0.10731433793511148,9.859278492311427
19.012580190447853,-1.4276421154882595,0.09167679967040902,9.850884698554877
19.03145573162238,-1.4282827833844467,0.10799638712116767,9.897172907519375
19.03263399414498,-1.3952116695256738,0.10533931453046286,9.894479441684911
19.051459902484822,-1.4988930502717814,0.10900405867308417,9.874426644772596
19.052685326773837,-1.3710155061307143,0.10807041313332919,9.857917214975805
19.071466406236606,-0.9188829445795742,0.127361886431875,9.860097835364327
19.072733277739403,-0.7331399501278946,0.09897154286827413,9.876744560603319
19.091465614064088,-0.6042856477176137,0.10138385325785253,9.837953265290682
19.09277356435484,-0.3867534200085923,0.058866275075802214,9.894352181174833
19.111461827562596,-0.13889212489491543,0.10067868787580016,9.892244361909011
19.112815560563178,0.004555628205079879,0.10364694413542326,9.831775937139179
19.13145638513309,0.21868595499609206,0.06928157816322333,9.892570213570147
19.132859989183554,0.45433598078472126,0.08572674042620852,9.875419398106036
19.15145835957198,0.8092465277305952,0.07645050613659445,9.876022740607196
19.152907567248825,0.8995887355978228,0.09619440317880319,9.849486866286986
19.17146206705527,0.9633840493714401,0.0786910386613832,9.862269034400303
19.17295236407861,1.2461364709881442,0.09768013517456964,9.872405673262099
19.191466607272563,1.551833152915268,0.032308861362067724,9.869458803155336
19.193002872794725,1.9607025743933786,0.06366176900443417,9.868081565139025
19.211470511959547,2.3529471693455073,0.07460593883024778,9.850660768845463
19.213045317092362,2.3779719158360977,0.05729190920654074,9.851915867557857
19.231480202840025,2.2969452280841827,0.05084105265652533,9.857276627667916
19.23309784350701,2.198824048223492,0.06652485327267418,9.863594215476924
19.251481159007295,2.1621296391802667,0.0633462826716603,9.874404119083787
19.253135951156107,2.119090518105882,0.06372906204997529,9.860887729855927
19.27148289901121,1.8499234048360118,0.07126007539338938,9.843388856850806
19.273178871823337,1.541073351435883,0.0708292112016544,9.876428269565752
19.291482088224075,1.466709637189348,0.0836916523344994,9.867683200426217
19.293218972099258,1.4517223084374966,0.06694241502375828,9.879083385445206
19.311492142279217,1.3438877466791153,0.0607230886563001,9.807305496600014
19.31326976834406,1.0414756499452336,0.09943615434589055,9.86291052934069
19.33149818847791,0.7870516306106419,0.08052759907017518,9.89104042980497
19.333317646482723,0.603071094073167,0.08940012104700813,9.865275344103472
19.351508725587603,0.5134276922215708,0.0717993355345279,9.89412253356845
19.353359009571655,0.4350082001676169,0.08072135747542107,9.848025769906421
19.371513658935243,0.12242127348305071,0.07349108745814913,9.86367829843299
19.37340064824545,-0.048864214328070414,0.12624228251376154,9.874570920567736
19.391518458045766,-0.3497820839717881,0.062343140438805456,9.894936560045265
19.393438792348313,-0.5488007632303946,0.09151034796792434,9.838584925017548
19.41151704037877,-0.7029291787712431,0.15097664705657918,9.876161131577177
19.413480870057125,-1.0207468170351293,0.0849381868720969,9.873831975737124
19.431522735895097,-1.1190087861605722,0.11350309576300045,9.875541823278057
19.43352403971512,-1.286724473082089,0.1064532269630925,9.87599834074874
19.451538853191767,-1.770765764444195,0.1073740261854674,9.878557089689556
19.45357076412632,-2.1982968093846775,0.11810938521586002,9.875333087117493
19.471543351982508,-2.3404743371355194,0.13011434296260108,9.897545443418863
19.473608163262416,-2.37579688839465,0.10436363047998204,9.884578541697662
19.491549989724977,-2.4955261769155754,0.1129956984360069,9.90243223917498
19.49364541233073,-1.992393675855535,0.11667900576352966,9.89033677684193
19.511549966632604,-1.5237228913293928,0.11462506505417544,9.850692718030981
19.513680939396824,-1.4455236405838787,0.09991067436692717,9.846513325806008
19.531555777730908,-1.42909376124544,0.09961886418129992,9.895401306021634
19.533718889236958,-1.3674588412041508,0.11440558549738172,9.8892929887219
19.55155879954092,-1.494833198367153,0.11553027964518757,9.89361373091954
19.55375731584818,-1.3675522889390779,0.10044236008906185,9.860303943196113
19.57156289173227,-0.9278638150858072,0.10391454589522096,9.881900360203282
19.573796270872418,-0.6908031119955111,0.10264857380223534,9.886345732759613
19.591579394150774,-0.5507705314327759,0.10438016866752414,9.845241486146563
19.593842569699213,-0.32810118144933864,0.06252598962019211,9.897245336929318
19.611593251506594,-0.09934024376458901,0.11874297563452146,9.85924006967637
19.61388300973965,0.03317843678609135,0.09688187463335174,9.846799594471767
19.63160360901907,0.21878434627467344,0.07291956922175753,9.89489958667039
19.6339256691092,0.505345503773556,0.08694825740571226,9.862231948046091
19.65160617055301,0.6727731245849626,0.07616451974421679,9.847389596090162
19.65395747463003,0.9347468096687187,0.07927489127708967,9.874018264309075
19.671606474558136,1.478547470350586,0.07794785746335303,9.892923551678042
19.673988662082284,1.285021632084865,0.06537556572742781,9.836663485998745
19.691611390556492,1.4403132423231375,0.041694970045526726,9.87680767434576
19.69401990647031,1.9702829061185243,0.08352562364536179,9.884029360625643
19.711619636244315,2.2762288996998747,0.07171886036522808,9.840727138629557
19.714062070682274,2.3301933096782528,0.04342614145854659,9.851510445789929
19.731637415786114,2.3941696784551496,0.06634483112526543,9.843580227156076
19.734105087130633,2.219616246658059,0.07481237088457852,9.850290298902863
19.751648331140014,2.2514009619178186,0.06398623926843593,9.876681298318527
19.75414947374736,2.1658349864475217,0.07764227801853783,9.861974473876996
19.771660305948945,1.771217514310558,0.07258615761745676,9.842512733522241
19.77418648620915,1.4732611376728166,0.07562296277563901,9.85756711528527
19.791668189890377,1.4279632453799995,0.08690986823164966,9.876157225432591
19.794219165493498,1.4450044245374178,0.05849747120729426,9.888430388266334
19.811680949838134,1.3511457881522353,0.06489306671410007,9.809661704965091
19.81425530093623,1.0274269975957953,0.07936042047910995,9.869664066678286
19.831687843129608,0.7571128872812988,0.07605154553203794,9.889261415505779
19.83428778996062,0.6136806757803646,0.09184989233830637,9.861382722423464
19.851701283015387,0.5290633258648958,0.08141585380493846,9.87753031690722
19.85433516145614,0.34259050724833967,0.08727954364741597,9.856748006873856
19.871714159568196,0.06608376219084362,0.09076477580468348,9.850116291127101
19.87437575423298,-0.10162920200397767,0.12467721952951112,9.880212908383081
19.891734371323814,-0.3621365295359659,0.058572372382096526,9.873977164549961
19.894413930810224,-0.5490441780011949,0.08922274371661992,9.842558549367157
19.911736534881733,-0.7835689981057231,0.13215014734140146,9.900582699406828
19.914442938319837,-1.105261801149568,0.09776422725093553,9.856572170060083
19.9317470859712,-1.1901040951487383,0.11391307515231774,9.880483636393837
19.934468500427528,-1.3688458065858973,0.10473372952600858,9.883791125766797
19.951748242252393,-1.8420902641510943,0.1004123144901129,9.860887503451039
19.954506926954867,-2.21481390141385,0.11411270355449338,9.87769605991696
19.97176882213641,-2.316158084210753,0.1380297126575115,9.899570917598695
19.974542389889777,-2.4657676113907128,0.11347261751902751,9.872094423936149
19.991780748476348,-2.505560768605809,0.12869483477593358,9.904550607578942
19.994582952734387,-1.969785885397511,0.1316299568809453,9.886671465065145
20.01179358373566,-1.5117641988820092,0.10758383095439937,9.852147546771867
20.014612200452227,-1.4291767539386402,0.11003614997028612,9.854642876928057
20.03179695095673,-1.363844897185162,0.10326445155858369,9.88453121292374
20.0346469248852,-1.4128914215993593,0.11755506108064126,9.882217372631091
20.051809897299503,-1.4485086984250506,0.10878077970980479,9.89117932321847
20.05468004361662,-1.2606994930050193,0.11387548190337599,9.834610815335985
20.071829691676985,-0.9038350005718462,0.10962526889548692,9.885887317969422
20.07472198563156,-0.6785692210539158,0.10337226621881816,9.875115887791392
20.091849283399405,-0.528616460982517,0.10224260797596148,9.857012875597833
20.094756568257313,-0.270877937555357,0.06655910463244008,9.919960838164837
20.111856967886116,-0.06882298510572869,0.12494832244030651,9.846875889313234
20.114786522492683,0.018311343292931666,0.08699940459617542,9.863786968095047
20.131861437418213,0.26271630831740433,0.07446686566614621,9.887313677103833
20.13481687882566,0.5441830904412185,0.09267491902427558,9.849138656243316
20.151872342320782,0.8039466766946084,0.06959305378291436,9.867221571494278
20.15484593035997,1.04518957197514,0.08173446935213487,9.869730772818503
20.171885328028367,1.2193310089777498,0.0922198162498646,9.855494920173475
20.174882324035963,1.4237857557422904,0.05832702431214958,9.862802411237562
20.191900505485236,1.7353564890924174,0.0533195470041729,9.861299564499829
20.194917146562965,2.1026809296920073,0.09300073975714285,9.857814127936113
20.21192049313842,2.2758115892581245,0.06797684424426963,9.862278505826994
20.214957466709304,2.319025484125431,0.05424253381968361,9.863703349198765
20.231936806589328,2.3209156950171064,0.06163410983388288,9.856800406134749
20.234988264625294,2.2670696018107357,0.0697674422635774,9.854287524530069
20.251952539825105,2.332102143389898,0.06480746079318815,9.86242846762796
20.25501960684549,2.1115717760678128,0.07151100451601583,9.842903949996845
20.27195529226232,1.7556960725592325,0.059527691055523205,9.861581167404715
20.275044668754884,1.5146927316667234,0.08615308029759387,9.86957780659927
20.291967264642462,1.369848221793634,0.07176246090434385,9.876699456630789
20.295082512885678,1.3929502866755283,0.07063037175136111,9.872736029158858
20.3119844734475,1.2517777046518976,0.07260635341546175,9.804393368527899
20.315117259460983,0.9199460078466056,0.04841939664473257,9.896143201712055
20.332009582989034,0.7467549278137225,0.10026360362024443,9.880409604271508
20.33515882109259,0.6148932605932796,0.10473019887183355,9.853710334764783
20.35203020955174,0.49223518181700376,0.07602007357999886,9.882636489063913
20.35519168949641,0.2756982986590492,0.0861613802861152,9.846853367901428
20.372043442393544,-0.024530293532893585,0.10896883152482055,9.856050428646913
20.375226256566076,-0.18374191649041707,0.12116208039172964,9.864077754585292
20.39205451954435,-0.39427258478299604,0.04674703057939936,9.885711930146737
20.395250330020758,-0.6128210892898279,0.13553442088910178,9.84759978342987
20.412064683060148,-0.8884915987810229,0.11812309146290849,9.887715201400342
20.41528177806131,-1.1654600521854428,0.10140604122644081,9.863045927564114
20.432078701155113,-1.2272463844216397,0.10293526448367148,9.894324219564508
20.43531055928099,-1.494096190280142,0.0992735994861459,9.86730486789383
20.45209448727515,-1.9486453112162974,0.10890629260177546,9.882004191778613
20.455342036922413,-2.2277749794552246,0.1257002131932375,9.879382807113997
20.47210919129308,-2.3107155312170558,0.12731967165026414,9.894371756237447
20.475373816199774,-2.5774453543792673,0.10400460803126366,9.873380388053928
20.492125218386313,-2.5146844363671867,0.12414674620993559,9.897979522510413
20.49540046956034,-1.8439101693327613,0.12843692931453948,9.901364219800678
20.512136733039533,-1.4185549198874068,0.10539302311032005,9.840721970265985
20.51543268344038,-1.3392772877856771,0.09763270736595585,9.858933262413341
20.532152255135923,-1.3083829966281655,0.1175053399283578,9.894346662079343
20.53546104398843,-1.3623983988420099,0.1196766832090731,9.87774979617721
20.552166530115432,-1.4190729376960682,0.10976429726001988,9.888737238824195
20.55549473243368,-1.1695173603900202,0.10938788387900034,9.85554170072852
20.572184130703963,-0.8359220144811349,0.09838774753731962,9.891238168283655
20.575526230808954,-0.6336283566918057,0.11340567349433803,9.862160066551471
20.59220137816193,-0.4817596120846392,0.09223639985362904,9.850118693533686
20.595554096015487,-0.2368411819773669,0.06567414443946476,9.910771957282497
20.61222132447432,-0.08767835817250562,0.1243920504298858,9.839743553211274
20.615590618039597,0.050848892068521105,0.07635458564100792,9.867616311224829
20.632240879978177,0.30949736260618993,0.08211038370705236,9.8983690814979
20.635624626631774,0.5576615823096334,0.07534787012393378,9.868365838504133
20.652257760709457,0.8793781968692688,0.09325299064150125,9.884664898571629
20.65565823962345,1.1279085173888714,0.08004991051023519,9.860802112518622
20.67227596068772,1.170715840314978,0.07848076805921349,9.849346165041242
20.67568139594317,1.468743020734814,0.05930597516969293,9.87723764058257
20.692284796103653,1.9289330465737748,0.06126108761873631,9.876518184489557
20.695705546561776,2.230357459655397,0.08164338090136786,9.860413958118125
20.712299834228684,2.305590326840392,0.06974613604799451,9.861704835883142
20.71573181311646,2.2908997847298567,0.06623892492963918,9.858378130148983
20.732309564597955,2.2740171886976217,0.08113840515952574,9.87297293066206
20.735760964035467,2.2461483561603255,0.06598360852012372,9.867823925377895
20.752332907517246,2.382812469181516,0.07860796757695356,9.856639235649025
20.755794353039477,2.024780249069141,0.07972279682577613,9.849406488104602
20.7723500925378,1.7021010367957248,0.06894389495372251,9.87191366281774
20.775824238170184,1.4649460378028443,0.07984448139762663,9.89075593254122
20.79237252894352,1.394985241463119,0.06459779129564083,9.87161712587558
20.79585704142116,1.39829509311999,0.06383656074029564,9.863697829011029
20.81238479364678,1.1958324102494864,0.07049954357083774,9.813012041457185
20.815883432888985,0.8533540397073957,0.07007918088798115,9.892925309051922
20.832403876701797,0.709325006637135,0.07104766315010946,9.890651053962024
20.83591691115482,0.5541970433370494,0.08933926275121001,9.873832603137494
20.852419509929994,0.4036864788724678,0.0784717016377824,9.892544015880164
20.855942628766243,0.21683366812366844,0.08219531203708964,9.868048830132588
20.872444428122495,0.028373955672115085,0.1215596624989154,9.879630834856624
20.87598105440809,-0.19710874351194344,0.09900978223968285,9.884162690700336
20.892465912358478,-0.48894135752907514,0.07765285017266799,9.860713043354867
20.89600564666629,-0.6829957822070616,0.14272777129354233,9.87128193296341
20.912481197382647,-1.0078958828091804,0.1038577158582119,9.89281505899343
20.9160334143469,-1.2341915163081174,0.106258449529917,9.857658755228382
20.9324918916949,-1.236480495554011,0.09742426571339392,9.885542784539378
20.93605362119953,-1.5790115239188642,0.10198233749249062,9.865255431196138
20.952506755150296,-2.061301231576378,0.10938211814766785,9.875406792354699
20.956082388587657,-2.275668762374333,0.11585459597815183,9.895112890831435
20.972526675456134,-2.328437673047456,0.12252657001712518,9.88540405021923
20.976117317172985,-2.533058522291033,0.1076738872070986,9.875494853230364
20.992556870147087,-2.3907952423910506,0.11842798315265118,9.905615083184614
20.99614922697021,-1.7459100989949665,0.12953525522243997,9.884180998779279
21.012575040446173,-1.3851123271369876,0.11655913144057954,9.86264350946927
21.016188297719413,-1.351127547428854,0.10827652458250948,9.874541842860541
21.032603828189067,-1.3393267313365076,0.10423917060164724,9.884882200759941
21.036211740007282,-1.4206899770013437,0.10905300852562766,9.893667101226436
21.052610697229316,-1.498752180074371,0.10269750308136248,9.898768859826866
21.056234903147242,-1.1945401661515616,0.11946033356132499,9.862331424747614
21.072630056282776,-0.7880318837010735,0.11612689058154256,9.905936368830577
21.076257023214595,-0.5774065522994153,0.10430939930695005,9.860159517089956
21.092640695821146,-0.4453007756835461,0.07262000624509163,9.860511535385879
21.096283622297097,-0.21828772454218742,0.06543554477067659,9.896336811518442
21.112661979077537,-0.03624999323229581,0.09890860285850828,9.8458969785099
21.116312610291896,0.136115290403783,0.07111740621915207,9.895505216115675
21.132679934177176,0.41318968594786326,0.0813509186707231,9.887421437280858
21.136335179316426,0.655589331446823,0.09009544608024286,9.856583033312418
21.152696249876424,0.9059061975201407,0.07304519356941011,9.877890417570415
21.156362567207132,1.1259544919915454,0.08666477894284436,9.879970980266961
21.172713739438596,1.3273526691275517,0.08231292000209113,9.854224787072752
21.176388939478674,1.6154583938046614,0.0420072431687251,9.87440929888339
21.192733321228026,1.899368666736755,0.0728143668551239,9.873344082257896
21.196416298714126,2.1863419795047876,0.0779250822074989,9.861108833232315
21.212752967956238,2.311531770925848,0.06483174965229578,9.857740791828276
21.216443553938394,2.288300698881881,0.055620917596481016,9.825815980929045
21.232773244712693,2.2621697676199624,0.06866809286076508,9.869282522174398
21.236476985509945,2.3612893456272093,0.062037095474182,9.863753867939508
21.252798579566832,2.37468784433609,0.057447366645762436,9.871168710517221
21.25650439904535,1.9532956260880443,0.06339228202055024,9.848135074312006
21.27281824500589,1.6340782563939213,0.06435254944659076,9.883439211669712
21.27653435708149,1.4292545993862695,0.08533645397366116,9.874950270962639
21.292845524554018,1.3425010767095984,0.0622146615576494,9.885367819492293
21.29656164352931,1.3504974019319416,0.05208479931374239,9.837412483117046
21.31286263798331,1.212850343135167,0.08299345496795939,9.848867575663252
21.316588774169336,0.8853730529421299,0.08471972257930811,9.882665855098297
21.332887470844458,0.6414099332936694,0.09331992890149794,9.863357407501551
21.336616952805347,0.49175275298770377,0.08824703571522524,9.884431415822512
21.352904771170707,0.3598960382452281,0.07869764617009202,9.878312179001817
21.356644361595304,0.15836081156830473,0.09672899830073416,9.847874733691157
21.37292453137617,-0.034176293838018006,0.0967530109766015,9.881577385644436
21.376670113059518,-0.2793122317776515,0.0830765267744329,9.8890705568024
21.392940752994164,-0.5192550712482282,0.06934487288247977,9.860387893543539
21.396692098104946,-0.7033423732804784,0.1302706636460317,9.862984622824504
21.41295698765401,-1.0499544922034192,0.08999875065226501,9.869198752599281
21.41671533191452,-1.2039947371288635,0.1150276557489767,9.876504242936615
21.432980897269257,-1.2187554347753142,0.11699435498774044,9.879952184235952
21.43674807146151,-1.7141527231806308,0.1102724040725773,9.870294822220911
21.45300590515764,-2.1017344331502223,0.11045888317947503,9.888575152863547
21.456774561486966,-2.2736308311969036,0.14519759587481634,9.901596698666745
21.4730266600934,-2.366842633131009,0.10338785529336196,9.886145061723688
21.476800397173665,-2.5898323269630827,0.11901429944096464,9.886594025984184
21.4930460322738,-2.332540188440824,0.1383506060864314,9.90181449252072
21.49682036582865,-1.710884258475549,0.11883909671983758,9.869009667370594
21.513062748829558,-1.3319516607450048,0.10441116134318491,9.852044301152906
21.516846113508546,-1.3098073361133868,0.10111955340227138,9.87797729751151
21.533084056432497,-1.3473237521068813,0.11904277627626492,9.878118696459044
21.536874318195473,-1.4787090319366003,0.1201227035832793,9.878200652015323
21.553107189756158,-1.4959586462004655,0.09954310449868545,9.881372856661406
21.556900183198476,-1.1304711633440578,0.12355457745015398,9.863666191681133
21.573128265340923,-0.7501911712341883,0.1049067691260759,9.898158288704028
21.57692703642286,-0.5673136451617008,0.10585916135539439,9.849684800833067
21.593154400947686,-0.36366323539811096,0.06637126947344803,9.880452969275002
21.596951551736986,-0.18654210590864442,0.08566922163417617,9.89892670969513
21.613172017175348,-0.0009544519460443513,0.11530494339405066,9.858273420168596
21.61697758533631,0.17993871163222988,0.08069698786109807,9.899649428283684
21.63319966938413,0.4370657303927155,0.08155587707800785,9.865472037949015
21.637007743611505,0.6708275807679818,0.08291467302785796,9.848871589122455
21.6532171135752,0.9589466476456202,0.0761307984764474,9.889313649193072
21.657027881164662,1.0968370117412625,0.08527273167466971,9.865026882125209
21.673237951925323,1.375418837267671,0.07268597060317086,9.859822110104092
21.677055131038326,1.3659869699454394,0.05590132565237348,9.867726389538541
21.693255612134546,1.6736255739962005,0.07246776665965705,9.907155307254696
21.697074303612332,2.8875717728487684,0.08174306885238741,9.886967001066605
21.713276557956306,2.5124481528579845,0.0319289223056316,9.829916275153364
21.71709938736495,2.207174143982444,0.03705265821454037,9.849009729524228
21.733300517269655,2.1501852534667654,0.08704820280998347,9.876445984630147
21.73712898445406,2.2827592665571834,0.05502779970290149,9.886490445625594
21.753324942903028,2.321527521631846,0.05979896310548678,9.855668500529402
21.757153672745407,1.9268664971318576,0.04164190573010269,9.834681077533387
21.773347098766997,1.5936871131626833,0.09177929154364316,9.877575787594683
21.777178346537365,1.411202521885724,0.07121624778394355,9.879783021983938
21.79336726665179,1.3331260200337591,0.06966268975873063,9.894721302425957
21.79719647378718,1.3131323217731232,0.048056091638844486,9.831984030586463
21.813385916919437,1.0951998770416536,0.09669320971233669,9.845170787103848
21.817221478763226,0.8136620757676039,0.08094423779258512,9.906090624991643
21.83340950909904,0.7132519199809872,0.0963726065321342,9.862977405498931
21.83724944554181,0.5865753829608835,0.08799798824697876,9.902705101281905
21.853437137357105,0.345527979136788,0.06519431811928666,9.861806603184617
21.85727649020614,0.10603385113774574,0.08121969252165552,9.865742440922288
21.873459769548006,-0.04505453112991814,0.11699680598415607,9.87152425057843
21.877300655725435,-0.2839584620796114,0.08622322652114106,9.883418330918397
21.893481246161475,-0.5351218209678473,0.0794830181309356,9.850740400774187
21.897321442552506,-0.7482232144952189,0.14408534532049264,9.886297661879132
21.913498551667654,-1.057150694179446,0.09662176563246741,9.877174317049253
21.917342104705853,-1.211132076542082,0.11723559779177908,9.863979892813662
21.933521487270006,-1.2957901134099494,0.1173908945725722,9.878377614287388
21.93736709810171,-1.7075578207229252,0.1045971897506127,9.877381757422953
21.95354484276332,-2.1009035243751457,0.11144086468029171,9.888813841219394
21.957390944378574,-2.388626991235964,0.12851324844020914,9.890259169126743
21.973568762822968,-2.479591588372766,0.11203658957508543,9.90235596505699
21.97741880961267,-2.5376952542633084,0.12154026937973253,9.88563496448359
21.99359394140987,-2.249528183186974,0.14041108700792687,9.907629707267581
21.997441918431836,-1.6075000916679285,0.12946943839515507,9.880764654934534
22.013616937053907,-1.3141562537063525,0.10317121964914765,9.846355913490912
22.017465834500463,-1.297457138535273,0.10728756122581733,9.881088349754801
22.033639361311984,-1.431888782027086,0.1040676504860082,9.888894182577717
22.037485518595787,-1.5172298979598242,0.11982858973348551,9.911155922983944
22.05366034411458,-1.4458022137886535,0.0944350013628789,9.873893251030553
22.05750900312671,-1.0539836714857058,0.1111393451707211,9.854581063288471
22.073683661724747,-0.7081996630863442,0.1114991167861679,9.904029870936332
22.07753283311839,-0.5051805311392839,0.1099522855450523,9.845383211917419
22.093712286491936,-0.33418676517183576,0.0659498490444321,9.894338380597738
22.097562107640186,-0.12198436406733126,0.11607602627059471,9.89930348600791
22.113736223372097,-0.029480254997049878,0.09497958587701517,9.861461884306035
22.11758696521216,0.19931506279857747,0.06715223514204506,9.89463527692763
22.133767993068247,0.49812090687688015,0.08742585106783021,9.85904775150792
22.137615054644236,0.7352009851389874,0.08926152710049992,9.867213296460411
22.153786476089635,0.9479744446825051,0.08689094728409218,9.866403701430732
22.15763257015137,1.19223273151849,0.08243372778937127,9.8644544865454
22.17381393479186,1.3379931137489107,0.07247606070910982,9.851560748686659
22.17765707995769,1.6500558318664562,0.04968622062462567,9.88298782940776
22.193830357318333,1.9885230053666991,0.08783088641592997,9.87270385641326
22.197677815767886,2.2729478020786362,0.07124107282412111,9.857411473786517
22.21385907174296,2.319820877970479,0.054125680472615144,9.853573788228282
22.217709493581847,2.3292394990980068,0.08291327738589806,9.849305557312897
22.233886168984505,2.2478267890771835,0.0570292976783564,9.858805112238013
22.237729301791383,2.3548745479760766,0.05979279661685674,9.864618763614384
22.25391084852419,2.268804775358297,0.0718171181613086,9.872242478036243
22.25775603805835,1.8198320746298475,0.06120752857548893,9.851651728464333
22.27394008150448,1.545221282004426,0.08797791440696279,9.88621774327778
22.277773995470437,1.3834109058058557,0.08710813604700329,9.87863687662823
22.29395832636808,1.3646225881460219,0.07084822775998038,9.881423976618672
22.297796325209255,1.3712210098722977,0.062236709885033686,9.819730433532055
22.313982333514538,1.0808080710914678,0.06635519711375786,9.881100167694578
22.317812612761475,0.8062140900122267,0.07891201243410026,9.88347052162012
22.33399801206161,0.6628957207544998,0.09939160024646759,9.871468611229062
22.337830570043707,0.5426880170920824,0.08966210503656609,9.901390687809936
22.354022305261015,0.32466764158140726,0.07771631451575899,9.86377313986502
22.357852853554874,0.08557602820617351,0.08824644884616278,9.86839585373747
22.374047514697462,-0.10896868151640293,0.11611774349440748,9.869535222050464
22.377881127907212,-0.34464227380026,0.07076177303523509,9.889789342855632
22.394078204242767,-0.5449317290224567,0.09020175494209497,9.868261151079075
22.397903889875057,-0.7520941034409828,0.14811398752426194,9.896755033183119
22.41410338839087,-1.0932454979137098,0.08539734526447995,9.878289554752717
22.41792700285554,-1.229877621192713,0.12276449369605262,9.888889520683342
22.434128045574052,-1.2814578143936777,0.10530676846178816,9.879853295655643
22.437942137038792,-1.6900258643077029,0.0992100036091339,9.87229590806862
22.454150634100582,-2.1379899307492822,0.1082870528680882,9.881081696241196
22.457971725611515,-2.318093244044737,0.1291991809229539,9.891725410162518
22.474184507676878,-2.4245663628850935,0.12707781946581226,9.870899413464842
22.47799664179114,-2.559977611815844,0.11493658042830637,9.872253161225615
22.494209246624077,-2.1819080988346684,0.12652196583769307,9.906592325707578
22.498019508353927,-1.5178541788504534,0.12510896588857892,9.85627229551632
22.51423709811601,-1.281233095629901,0.10050340853037608,9.845594494298014
22.518038289189832,-1.2891378120627943,0.09970955320593325,9.874998382606078
22.534260911448396,-1.3633297447732746,0.09877817829674183,9.900293239888343
22.538061623079745,-1.5360559035783399,0.11553875304895216,9.891145361846613
22.55428672217607,-1.4509617261922059,0.11468636109148003,9.882741463803793
22.558081793698733,-1.0397126026176833,0.11606040645177193,9.854599342461881
22.574306297745157,-0.6606958454540696,0.09842457218335127,9.873949607115332
22.57809760722873,-0.47375813581893833,0.12224802995453482,9.832768262210607
22.59432468495312,-0.37572105647893733,0.06785961264788636,9.891354372960155
22.59811287821635,-0.1882455819419546,0.09369971117016551,9.885124400676778
22.614350389741,-0.05428952155048792,0.0975193263625477,9.859439413669767
22.61813389200708,0.19272749652483717,0.07697833458974145,9.899135811824612
22.634376425574708,0.48121084186893837,0.09136233165792972,9.865805299140241
22.638154781285532,0.722277934336653,0.08234694144473372,9.855347602886004
22.65440320007621,0.9637775733306321,0.07638289298691892,9.862777999320963
22.658180783560162,1.1774987006767808,0.08750775249048712,9.859273736399357
22.674433681871257,1.3037510925844804,0.06877078773978913,9.851696113918322
22.67820256538695,1.6223035275559676,0.04489965019688363,9.887909746633829
22.694460256782527,1.8431450868610957,0.08963964032535793,9.856026451326036
22.69822322470545,2.1764534766366705,0.06666601430331338,9.857592376580916
22.71448699727758,2.6397665670406445,0.06842696683981071,9.870819769897137
22.718243298187243,2.310544151238231,0.06383075546974505,9.837867671039273
22.734511459317186,2.1055975980645414,0.0795656864108574,9.850465737226292
22.73826310902266,2.2460448539456026,0.0735207060161424,9.883476462198136
22.754543967162082,2.282080387861271,0.06676383894131989,9.866791504159615
22.758293498845383,1.8559474894111412,0.07090873812289512,9.827919378809634
22.77457437885552,1.6333865982179407,0.07477332971765534,9.885851353388105
22.77831841046467,1.4246101137324403,0.08992436359839265,9.882423884519524
22.7946097452918,1.349330780191222,0.06074897266605845,9.89637969927974
22.798342007444592,1.2918366809450117,0.05879194232819683,9.818851599703704
22.81463015250975,1.0611313715179547,0.07790782002421094,9.867737870524447
22.818353672022,0.773291915794975,0.09460480028375517,9.881381476407116
22.834654453716013,0.6658706341081334,0.08047527969622803,9.883583474504393
22.838366732881756,0.5482290964110228,0.0907376656451279,9.884432348306085
22.854671267047966,0.3567820202223211,0.07560024352999072,9.879188315638261
22.858394354836236,0.11161682060237411,0.08945489644310158,9.872514943065282
22.87471077570039,-0.01793809708717849,0.10594221507724354,9.86561219199714
22.878417549526393,-0.30827420473950773,0.07689363856831516,9.88699449888776
22.894737526906624,-0.4929279504095089,0.08185637938975744,9.843255893431667
22.89843549157212,-0.7250075643036735,0.13171515914714832,9.869365010895415
22.9147637987313,-1.0661211145563645,0.08890368882514263,9.888939326658258
22.918444197788606,-1.210105096079897,0.0980226857630118,9.881222641310625
22.93477860010077,-1.3140855426195905,0.11455109856602315,9.894306367972806
22.938462370254953,-1.7088198599271809,0.11254771502022194,9.883305021165384
22.954814544315845,-2.090151628964924,0.11505790357782573,9.878939942698805
22.958491620455206,-2.2848047263979208,0.12880979610533105,9.894383073605322
22.97484336547239,-2.427525715657311,0.11498176796896563,9.890259946380585
22.978511447881456,-2.5470197846667646,0.12021513897010326,9.876766686191731
22.99487898828662,-2.1854862967625635,0.1302490159009358,9.916749781386864
22.99853619643316,-1.5586251969949765,0.11032446487259184,9.862087269116978
23.014897319249865,-1.302012457970718,0.10137006042494158,9.85748337572099
23.018551386104143,-1.288013087817504,0.1013920909311254,9.865350719719807
23.034930320993485,-1.3365748526996755,0.11421910395955144,9.884763306008399
23.03857042680237,-1.4943920179235308,0.10972620256721097,9.897146093216627
23.0549510057301,-1.4000600270033043,0.09768305854437191,9.89121649067919
23.058588056001454,-1.026825319193975,0.11319490798795044,9.854190419857542
23.074982960738108,-0.7452192453308535,0.09605248068576508,9.877410012930254
23.078601644202468,-0.5423971776330032,0.11143104189976888,9.859823844871942
23.095005508341025,-0.36171086854069284,0.0680887592344065,9.90750986093232
23.098620424397343,-0.1714872954511564,0.10563487217675387,9.894292249363053
23.11503275292313,-0.048055929645852216,0.11680663834341828,9.853797234583375
23.118632534711836,0.1429430316572317,0.08635420577590841,9.903553727321619
23.135056940689406,0.44879239546412103,0.09151815401657283,9.862400017415748
23.13865140746851,0.6734895271145966,0.08823524617259088,9.848627309445554
23.155084335116197,0.9622997924570645,0.07694624502580959,9.860096087514757
23.158670266856813,1.1464454668241457,0.0836606742548286,9.860979727096131
23.17511692529013,1.2700689346700686,0.08127753568795894,9.854036650441358
23.178691430273346,1.5415306214911548,0.04791459761903201,9.87587574394832
23.195144477883414,1.8994781352981316,0.06955957319316884,9.86670502592669
23.198709362167182,2.248646195355995,0.0822752130676588,9.86543453237362
23.215173091126466,2.3254331845691323,0.05693476826493419,9.851100686003717
23.21873136873028,2.308325111897826,0.06707407018853428,9.862316270902651
23.235205813004633,2.2688879250948744,0.06297070274172889,9.856295201781712
23.238753013080878,2.2877749751081566,0.0600000290016591,9.8621665998766
23.255241478729612,2.2173276104792983,0.08090080055484165,9.86542859634724
23.258773438282606,1.8472110994674038,0.0682694407875202,9.860172197455299
23.275271739172062,1.6233142937709801,0.059847784023361335,9.879687768229353
23.278788550068313,1.4023525527730252,0.09622636631466776,9.870840077715558
23.295297200805233,1.3708746653497605,0.06604505720799261,9.8898393029822
23.298801849109115,1.3381754313977077,0.06291419479609343,9.818339884785464
23.31531965917046,1.026257807979445,0.0666607985758674,9.8625122066349
23.3188172495264,0.8109183915172948,0.09034910956019457,9.890797091834216
23.33534932345515,0.7226040930264412,0.09313849730329006,9.869081075542189
23.338834250787464,0.573227792291574,0.09260545713865793,9.873331922531136
23.355375297952595,0.4023248592660577,0.07661662461934614,9.870507447655495
23.358849230030263,0.14368054883669057,0.07362854387194093,9.863170579326251
23.375406892740042,-0.028469776737631035,0.13011429259015406,9.870282446795809
23.378874953637983,-0.2829384381600157,0.08106882266995058,9.881451452139856
23.39544449441369,-0.48346448448081586,0.07141966545080275,9.850161046996368
23.398901187977728,-0.6778831954387362,0.12948693927863208,9.889615994669942
23.415481552492675,-1.0576731068380945,0.09563155281564055,9.88228269900854
23.4189251797645,-1.2706827686071416,0.10449920966193284,9.85865508318541
23.435518310299248,-1.267455061613419,0.10716411323629385,9.888448833286626
23.438936168924133,-1.5537040284355914,0.10279545448627829,9.859280429544988
23.455539626606043,-1.9979594340155047,0.10685797090002193,9.87379908661085
23.458943104003502,-2.256453176257033,0.13442752300295513,9.889598820634754
23.47556183911788,-2.3845909876933216,0.1187082383404382,9.89295358348242
23.478955355209997,-2.586230256759568,0.11683558980934117,9.881865252542944
23.49559124859853,-2.2903863193918688,0.12916479318937124,9.912964855734542
23.498975135360723,-1.653538812671474,0.12945606836152115,9.876440812677638
23.51562756432149,-1.345992070370169,0.09798501887114164,9.853098681887264
23.518998348735234,-1.2749394425983798,0.10581987511860161,9.866576323816204
23.53566335545819,-1.3007597352197726,0.09904525322811802,9.88881060527286
23.539019195025656,-1.454899071435332,0.12197472241969451,9.889662100784035
23.555690683585887,-1.3549521459929112,0.09376324871605021,9.893087198680055
23.55902957591227,-0.9978097104973747,0.11492026101012712,9.85402617250785
23.575715221802575,-0.7082878798883211,0.100969459346109,9.892771612051
23.579040671169402,-0.5585323505254646,0.09790001394693587,9.858822122620737
23.595749273636645,-0.3783422074507398,0.07793302080577591,9.886463357814359
23.599062100989748,-0.19695361514337117,0.09310044807384588,9.898550337738852
23.615791123283355,-0.10089627851428586,0.11605875897146932,9.850894372250705
23.61909008370384,0.06592449664361984,0.07655168178471024,9.894039250779624
23.635831727811276,0.44328725929211965,0.08536221886686568,9.877556241161493
23.6391093016757,0.6469528376233303,0.08957604763603381,9.85965211960517
23.655862263111597,0.9396955899496012,0.0721758411380307,9.856102333572286
23.659128065498297,1.1547521090788961,0.09513227145059966,9.858394696500637
23.675886793138112,1.2332551357527697,0.08466897594857614,9.856202098554789
23.679134438487825,1.5013412525321455,0.05339504179652841,9.868838990837094
23.69591168476574,1.80761866239154,0.06308793080227508,9.869936472890485
23.699146556215425,2.1981085702577214,0.0939305020901281,9.850613002239655
23.715940318219413,2.3181298627349065,0.06698518185110858,9.844135011256357
23.719147435023565,2.3414046007162073,0.05765306612195632,9.85034197868897
23.735964054923603,2.311965299900883,0.06101027114048262,9.836089630974742
23.739159896270007,2.2825960888228103,0.06325019885943726,9.85970254637572
23.75599387900145,2.1909822703521926,0.06247737433762151,9.865294236074948
23.759175193242076,1.8657790002031267,0.062317476776934375,9.843496811040456
23.776025597605614,1.6163726982234894,0.0726429650250907,9.869634468666593
23.779189598247694,1.4334439544339548,0.0844966626688259,9.864782132061654
23.796058020091266,1.3823060975542218,0.07452794328503971,9.886083435570951
23.79920490600894,1.3591377940487728,0.06290793916178747,9.83134257886743
23.816091272182216,1.1018489717467166,0.07915544542907474,9.842933983324277
23.81921685275254,0.8212377820901458,0.09324004048582182,9.898988718288138
23.83611978293888,0.7275757484829798,0.08310924055862969,9.85085334714669
23.83923458182694,0.5876546160903171,0.08771278254099826,9.883593538436545
23.856161952789343,0.4077814625258852,0.08139881764080961,9.873733752438621
23.859263611978896,0.1551323519794045,0.08378548538799022,9.867000492341084
23.87621113177174,-0.008447760454276415,0.11258152117411316,9.871072729760925
23.87928528650034,-0.21842815844806437,0.08546179178248535,9.898466054759874
23.89624840558618,-0.47841923834562367,0.0599890436368024,9.857751742834967
23.899302454181814,-0.6533934889621243,0.1345763906036931,9.867060693741946
23.91627848907973,-0.9935050473188367,0.10021121731805509,9.891948784356435
23.91930639054333,-1.2484581610589158,0.1059701215463301,9.859684035350885
23.936299483746073,-1.235540647772456,0.11154316426110218,9.881065395972517
23.93932072314008,-1.5089447686898751,0.10179634841809028,9.8886769388306
23.95634018119927,-1.9898624562217835,0.11017112130351918,9.876573738645286
23.95933251186446,-2.2662956525708,0.1301333558489844,9.890023154331393
23.976368947364257,-2.371440375210951,0.11336215411524354,9.908215047873592
23.979341827178875,-2.558890483148161,0.12945908238586115,9.880204348679898
23.996404985223116,-2.328523392711535,0.12179833845445055,9.899776087916552
23.999350008565443,-1.6845668876394753,0.1250329553081455,9.861575507043197
24.016427722254267,-1.3869603878842476,0.09432878048499246,9.8507989316793
24.01935759369503,-1.335498187941069,0.10461370104715194,9.856896864165869
24.036464831880796,-1.3416509748178467,0.10756553879391961,9.888810634082986
24.039374740017454,-1.4424742686156256,0.1177403100431871,9.891754054995806
24.056497909513638,-1.3670517251396723,0.10746000373016355,9.874757153555153
24.059390707879196,-1.0278337454998248,0.11604886219721602,9.852426394867651
24.076533955417457,-0.7485204315503006,0.11119553180648961,9.887962402452613
24.079408460249667,-0.5659360696872828,0.11185991958141388,9.855318350330844
24.096575359405282,-0.36229388284498676,0.0887646713620768,9.881381982275709
24.099423806260987,-0.18112482841430774,0.09066892824534711,9.89267815890848
24.116607099328373,-0.11010202297238457,0.11497036744370165,9.840231853404191
24.119429077441502,0.077640700037183,0.08047804352168246,9.896698446099345
24.13664075705847,0.3637888833422353,0.08407253207890228,9.889074475186515
24.13943622046484,0.6063161525636358,0.0879227538872082,9.851788997969486
24.15666638339496,1.0071838303576741,0.08837970105324246,9.864410089162984
24.159448302079408,1.1498993779130282,0.08243692293638132,9.85808517542311
24.17670729452552,1.2327208722814178,0.08418587254921704,9.859631617368956
24.179460722179453,1.4620943488804112,0.056714907212474325,9.865744902555962
24.19674240503917,1.7586276955875253,0.07660729129267789,9.869958382675522
24.19947249429348,2.1702008529047156,0.07357475085992302,9.862681374731068
24.216780867300233,2.343308571662907,0.06025218923203451,9.858816911340218
24.2194769622672,2.317818617669475,0.059783133605459185,9.844420194349315
24.236807771143123,2.2915219927663517,0.07671452600219726,9.856371394124855
24.239487336279343,2.2437640783801642,0.0731117560161227,9.854040346344124
24.2568474183358,2.1755624130195588,0.0674688052718087,9.86593800738169
24.259502368478195,1.8957057538081006,0.07726956801937857,9.837724298730388
24.276882006343396,1.6240670224503424,0.07853100520989319,9.861684574825233
24.279515381061323,1.4488282653695483,0.08181912776499844,9.873005117354552
24.29692123615303,1.4476426357606218,0.08927545355860002,9.89486481819645
24.29952558399929,1.365575295452874,0.05103264923526965,9.81460508010301
24.316955799165434,1.0515579618361959,0.07403031650863051,9.836329549393941
24.319535503803966,0.8291266332028226,0.09616376057035934,9.89247584154309
24.33699168328908,0.7689819011639428,0.09436509695824577,9.859601131796174
24.33954017168499,0.5939006611471827,0.08363892925044233,9.874436104081605
24.357026990845068,0.42825167614810744,0.08513345281079791,9.86116603089403
24.35955106138371,0.213356428334483,0.07177530806264479,9.869478012639146
24.377063775978268,0.02829041840162972,0.09739361561248482,9.865383894329948
24.37956517597859,-0.20417182911796594,0.09305187832275695,9.890526142136036
24.397109714106975,-0.47471322774451463,0.06273389076767413,9.866279721159612
24.399577938186145,-0.6704934651871745,0.14831044856838205,9.87097823535601
24.41714655770581,-0.9420901599187522,0.10237513728212007,9.886764879085739
24.419586761699343,-1.2391231635345088,0.11927894999943109,9.858777942679016
24.437183297150742,-1.2670943937391972,0.11669288886795122,9.901029080851394
24.43958674632274,-1.5089735814269791,0.11943729673406416,9.867314627344907
24.457214071442053,-1.931919946817559,0.10422153037542752,9.877270160224619
24.459599062272197,-2.2278957632390446,0.13469947465540835,9.88614338585213
24.477253969930576,-2.371891797243285,0.11891075391217817,9.886952332747093
24.479609032877214,-2.5788265606592464,0.129765882170431,9.863603734762513
24.497298906226273,-2.269726473815972,0.12224416738304582,9.902587468213168
24.499621858881437,-1.6388893228643535,0.12424913268950781,9.875326320382367
24.517333869332475,-1.3736068580550862,0.10526342003809394,9.85988151854592
24.51962470072178,-1.3691352257565692,0.10560924097461241,9.861550149321861
24.537374541712598,-1.3503285225842288,0.1049539282914324,9.887158353661743
24.539632779812678,-1.4388685035168032,0.12495230688946238,9.859055064202455
24.55740685691805,-1.3801987577232042,0.09470439447223439,9.891634077262838
24.559636045065414,-1.039102319361165,0.11089892284875237,9.851570998600598
24.577448294908873,-0.758435167734619,0.10262384703951051,9.894133464211366
24.579651721473248,-0.6430294521830857,0.10103776154079697,9.8405727301577
24.597490684778386,-0.409358774410164,0.09160246905209918,9.891342368775392
24.599657659518623,-0.18644002648524097,0.0868292636687206,9.888688773340029
24.617530754948092,-0.0761213909347298,0.12172641884344908,9.83783705227869
24.61966643659888,0.1201128510422616,0.06564644953958251,9.890328978367064
24.63757374833506,0.35837361540786045,0.08397767913220085,9.888110997565018
24.639665943668696,0.5837410144040188,0.07598473046215717,9.843973986225116
24.657607644794428,0.9203654405104248,0.06679440509648556,9.87382606035613
24.65967246964324,1.1469643643108234,0.07434826874741791,9.843021388877611
24.677648336414723,1.258927568984052,0.07896385105278629,9.837088843365247
24.67967736095881,1.4801139984885308,0.05325520085814161,9.854758364096465
24.69768443073528,1.8060301394190257,0.06915399069753307,9.866769467085332
24.69968209069083,2.1765612540656933,0.09171552114597761,9.868486058660915
24.71772957341338,2.292802799506312,0.05776985962209334,9.85654968181358
24.719694422906016,2.2304245068800435,0.05737380841680307,9.841234336584993
24.737777929788187,2.37566124435959,0.058921166218034185,9.869402648726659
24.73970368169011,2.3227953797086265,0.07664699205215184,9.840042136690904
24.757826809222596,2.0979515752003732,0.059582784125165746,9.861503520189125
24.759712426170353,1.833518866651372,0.07314617555299292,9.852484412689849
24.777866979228698,1.5720678758671442,0.06072702963183258,9.88339935082133
24.779717071902756,1.4431565879900046,0.09156546334516184,9.834411591536965
24.797905202102864,1.4440276865968558,0.06305426523821704,9.898842974654553
24.799718661922665,1.4045993160824837,0.06370457161497287,9.806442460969038
24.817942368055725,1.109881691774224,0.08328165796486513,9.848625065716977
24.81971934513705,0.8649166026579276,0.09428961278794291,9.874521948979428
24.837983365327748,0.7470048264716472,0.09535183035156476,9.872348726361707
24.839716882985424,0.6176299344840103,0.08040945798286878,9.854146260788127
24.858023694615497,0.45572835524199956,0.07263033130833241,9.880412353408042
24.859719665483194,0.16636956839478528,0.09888633497826908,9.852650995817333
24.878065303629857,-0.015560372016445351,0.10675905514349528,9.883692860477067
24.87972184506136,-0.19857256966504908,0.10673980220719016,9.868264190125839
24.898108710360244,-0.44394243143244566,0.03748303359875718,9.899280270664882
24.89972493907712,-0.6173608289415112,0.14548054187563086,9.83134232344269
24.918152461660494,-0.910024228092397,0.1282797496193119,9.894662462442566
24.919728803904203,-1.2556910049408947,0.10576335983197094,9.843825885842211
24.93820318120988,-1.270973818622135,0.11648349454883584,9.907684424779525
24.939735341484976,-1.5369527845638127,0.11316416530437662,9.834452033401938
24.95824973186588,-1.9824427918895957,0.10396861615438453,9.89806909285089
24.959742438071732,-2.228600503144804,0.123083626703315,9.844144912262157
24.978298548297214,-2.33645811534736,0.12506891418029029,9.931880370508683
24.979745955594932,-2.557206175511203,0.10754368620831942,9.824206669176375
24.998344687215372,-2.2580095680293497,0.1184859306056568,9.967601685729571
24.99975152128112,-1.6767414749923666,0.12966363017678,9.802489981273231
25.01839083208185,-1.3834298441035568,0.0746028145621173,9.956021722685643
25.01975274178311,-1.3597061526694982,0.09922851244406053,9.752330064135373
25.038439498541557,-1.1747837004260737,0.08909725822454947,10.302106457415803
25.03975127255498,-1.3030664278433388,0.076076209276053,10.147918290056182
25.058479440193818,-1.6071372333243148,0.15037070237217842,9.609677771473761
25.059744823558237,-0.9999035686651456,0.10845700507364883,9.943535411344572
25.078524827205605,-0.7431740258777778,0.10819036501371339,9.79133896529911
25.079742176380172,-0.5699344065611597,0.09421263786970381,9.922708647592131
25.09857282424824,-0.41852888815007205,0.07573284848215514,9.81874930686728
25.099745914919293,-0.2162524586623945,0.10765667843955547,9.913711681805507
25.118622016194074,-0.1352883805971809,0.12231352889081884,9.796459789372507
25.119751008601124,0.10642425378117149,0.08269552804768661,9.92620245770031
25.13867486999478,0.38892927772725067,0.10358475845093508,9.839095166885029
25.139749836959133,0.6763918784404575,0.08115690607156358,9.877866265409043
25.158718326631362,0.916956085115216,0.09037244976187407,9.83386707268547
25.159743817086966,1.1618288235414003,0.07132963086134606,9.880871014561793
25.178768499665797,1.2136888413819258,0.092905858922889,9.834850281199776
25.179743092283847,1.4803835029461918,0.04782216899068195,9.887660035801835
25.198821503393027,1.7938965012983061,0.0808313523998552,9.845060737831025
25.19974969277739,2.196010779902155,0.07446193357233377,9.878744871803548
25.21887911966213,2.2980666252538096,0.0779260743717988,9.835547973772604
25.219752116541795,2.3365558074542045,0.06376288376674312,9.864227365033274
25.238928713812115,2.2639430920337107,0.06996930214431392,9.83389983412512
25.23974156119075,2.2848356820479325,0.06239032272285799,9.865055868089618
25.2589697223675,2.143872184552304,0.06753256172764507,9.846862419962388
25.259727653032602,1.8590912960145916,0.07239889509295315,9.855922341542076
25.279018595031882,1.5910821111163747,0.08204882722894817,9.854926493380711
25.2797272118197,1.463638826622417,0.08264954290254208,9.871091027052076
25.299069861100275,1.423650492121112,0.07544848032268582,9.857074856216721
25.299723197936434,1.3729166856049237,0.063399573516349,9.830103518827858
25.319128336379624,1.0861742512975077,0.08476816857183006,9.85463989504375
25.319724951139342,0.8756407008551206,0.09389281328034181,9.879251224509423
25.33917791028077,0.7750415598036443,0.08769974076208213,9.861518651978994
25.339718836071018,0.6194638491359081,0.06990064933662145,9.8915845603907
25.35923687219198,0.4170365644191187,0.08790973814062406,9.851426134021262
25.35972420715577,0.19820266245078055,0.09071874782548357,9.880527132958683
25.379295329365426,-0.005039843227113162,0.12023910697085742,9.85783902254223
25.379717298792627,-0.24167710387108882,0.10173467426020529,9.886052945420662
25.399351278750952,-0.46579111377271126,0.061334238840577864,9.831719779751964
25.39969781769442,-0.6397612505575337,0.14193578943186905,9.88037305531033
25.419390313737456,-0.9863814895229391,0.10351971582585615,9.868811944803936
25.419677681265924,-1.246066534083314,0.11517550121391111,9.868689381518212
25.439439965036506,-1.2908696018922416,0.11558348888913927,9.888498588213213
25.43967280603189,-1.575157947533495,0.11336859332737956,9.867480394557116
25.4594928334337,-2.0497746768741485,0.1122261995058646,9.859194709350797
25.45966107063211,-2.2523984289507637,0.1300926058435774,9.915390208989658
25.47954295795223,-2.375527967615245,0.11947025295294779,9.862439839479675
25.47964845824555,-2.560947319746638,0.11206900768294085,9.885221056657508
25.499593793562095,-2.2677833716718157,0.12274866471825834,9.900359786759893
25.49962744174427,-1.6433727740106767,0.11938143177545144,9.882657757143907
25.519649484945983,-1.3994772785503622,0.09403400376983154,9.840919210045888
25.519620509383582,-1.3284205067509791,0.10225734407344209,9.884925743948745
25.539709798193954,-1.3652596898454412,0.11931659523150978,9.871048293925968
25.53961054649864,-1.4844847414836724,0.11705296989054392,9.88381514391798
25.559768485753875,-1.3611925098206543,0.10401245179463119,9.862887578867817
25.559600518564444,-0.9386964673717614,0.11673033774130429,9.883200687716018
25.579826058888727,-0.7472861148275746,0.10339171234301804,9.84554759067925
25.57958561959327,-0.6273246983937373,0.10453544234013151,9.86852185685637
25.599885304730744,-0.4091692199850945,0.08611164142938656,9.879848511486458
25.599572998902588,-0.1880900842843782,0.09003351305082763,9.875001700180123
25.619946004958685,-0.07171950943020687,0.1120732156441496,9.846341290951663
25.619558571887648,0.12761492726968812,0.08725845729903431,9.899958960798847
25.640005923998935,0.41086004634133894,0.07591308616474979,9.867513179683366
25.63954534047026,0.644310972653156,0.08179918111496566,9.877423508046668
25.660067433478417,0.9822055015339238,0.07748106029058889,9.856523431203618
25.659530386134723,1.1692096828697534,0.08614836705938682,9.853274178316463
25.680135089831584,1.2336130113314003,0.07700735378883272,9.84735508862638
25.679519502645284,1.5623973249816383,0.03989856846460357,9.8657265398702
25.70019896036228,1.868631534117615,0.07168211617990855,9.848453332498195
25.699501055305454,2.1886630324097105,0.08707044143669264,9.85292778203539
25.7202609141696,2.316239518241964,0.05374817387187939,9.85005541244941
25.719483686659533,2.377969897284805,0.0428620071231964,9.869272664718567
25.740320678714518,2.2930936806526567,0.0591194288332023,9.841575951098335
25.739460760898528,2.128962354806379,0.06756492988605552,9.852546056294905
25.76038604688696,2.112644257859736,0.07306631158789256,9.86528083307045
25.7594435374733,1.939432999752254,0.0671305887096172,9.853677330309965
25.7804533651314,1.7051686837713678,0.06468083709643324,9.84811717861038
25.779422887075786,1.4788528226081898,0.09249870747852178,9.876933665676505
25.80051915923189,1.4139595846063548,0.056514313696103005,9.864997116832898
25.79940154871796,1.3210537997744065,0.06265465132192535,9.803223308248015
25.820589877630333,1.0103519142024018,0.07871223030487712,9.869449207590916
25.81938673280198,0.8402039798545721,0.09478859316145861,9.88668655786047
25.84066369135103,0.7490223003407682,0.09935127034690419,9.866195276752162
25.83937034891106,0.5882815565592413,0.07528964822726156,9.869769993005447
25.860742003156048,0.40484321843201315,0.0670372757739338,9.847330900584039
25.859353429811907,0.14686044814545623,0.08073065458412308,9.8637260536471
25.880812041689513,-0.058146569436452994,0.11348871373423002,9.866912954630537
25.879329273991058,-0.27495667001056223,0.08382882396001705,9.896640482517405
25.9008814072985,-0.48751241472132345,0.06946984177858515,9.83240688599763
25.899298556529434,-0.6905249794966677,0.14589988568765497,9.862267030879254
25.920946322056505,-1.0567875056490181,0.08775026628606515,9.869113160762566
25.919267038466586,-1.2829919466926332,0.10318020320264956,9.861482443397795
25.941019025797747,-1.3068453693764075,0.11475312450072729,9.884804329235752
25.939243357295407,-1.6234437921762985,0.11705347795205648,9.866757269576823
25.96109771395542,-2.0808089943603743,0.11577512939934881,9.875212995031788
25.959215722044576,-2.294981375680632,0.13852550865763913,9.899019555328039
25.981177588356726,-2.4275970856585047,0.12023227388627272,9.875088922986912
25.979192886283062,-2.570526434791668,0.11565770565669421,9.879210983511744
26.001254937446365,-2.1847551644750234,0.14236200941030716,9.895295533097231
25.999153200697844,-1.5792994328334244,0.11935518725409829,9.878099880785012
26.02132442038584,-1.3856142714766748,0.0863853052569348,9.84962110398704
26.019123970190684,-1.383269385277902,0.10064844366694042,9.889835719526442
26.041402968845006,-1.4231986814056992,0.12443214970834374,9.87994494857922
26.039090904428143,-1.4866106583823655,0.10439694609624418,9.894500437374168
26.061482403291734,-1.3277179869451692,0.11459457420303569,9.85254722443539
26.059057876397762,-0.8882762195293074,0.13405200225251612,9.89481417595829
26.081568271453555,-0.6846420158567894,0.10054072069107892,9.852201883768199
26.079024048085135,-0.5514643801769556,0.11022515746482199,9.865257005286516
26.101652063366604,-0.3408657745196204,0.06634726672631253,9.864493441335046
26.09898814671593,-0.15000743171585817,0.10314348296267427,9.876235971061911
26.121737384270567,-0.05858289139791434,0.10851751806453107,9.84989460698526
26.11895452918792,0.1985659365246281,0.07662806912706636,9.890003247421179
26.141822763545765,0.4054745279153482,0.10723760713381705,9.857770533974005
26.138912237214743,0.5985039740972276,0.08609819906624613,9.87906578384235
26.16190294176871,0.9295403968363474,0.08341846269999009,9.863433413544598
26.15886603997988,1.2246215914956806,0.0782946320382321,9.854696949853029
26.18199250629757,1.3786438182190677,0.0811067834626348,9.843866944578895
26.17882264736188,1.6263194371568481,0.03944314031233694,9.855112868205744
26.202078183505005,1.90866734353288,0.08847366068559416,9.868394819085653
26.1987791988949,2.217911090022565,0.08521313350906788,9.862499453594491
26.222170026592046,2.358407683262191,0.04827598074104923,9.846258354296893
26.21873442616803,2.406944093189245,0.06504374074047584,9.83872606956152
26.242258829121422,2.301956005170094,0.06500283141777584,9.84394112668591
26.238688127908816,2.3256548664067287,0.049363794702635445,9.848913231781548
26.26235520167279,2.116790729103098,0.06654977520306048,9.845909793382402
26.25864140283041,1.7874851695817031,0.06983436138089803,9.853445921354615
26.282457241847574,1.5874876813968035,0.08672186031619536,9.858497037034061
26.27859979634469,1.4423248628537118,0.09894732218017985,9.888820093810406
26.30256015208668,1.436479344241368,0.05879179699581603,9.840024109787057
26.298546520195973,1.3100298811645459,0.05707791910170792,9.817884278550157
26.32265995288798,0.9225534175167174,0.0953541184611449,9.893565755315437
26.31850001896772,0.7782950663589345,0.11356430133526803,9.873833601742202
26.342766428967735,0.7300835459288011,0.08296075907707554,9.878073656339463
26.338442630126664,0.5422567601925382,0.08927377859188211,9.844766953560054
26.362867808714345,0.2621864493809858,0.07723509537546172,9.85115092753559
26.358385051890476,-0.04998280463780491,0.1047442900872997,9.867899927776273
26.38296985543868,-0.29358523820444304,0.12769366536997703,9.856363946698108
26.378316961515985,-0.5484964209336514,0.08758151629780461,9.882108224671299
26.403065685051292,-0.8451686987766228,0.0779152383862114,9.865897096555466
26.398248545563543,-1.0228747955182467,0.14680591257488812,9.857367001632364
26.423172347122147,-1.285335566574966,0.10375381977795234,9.88829968075661
26.418184811679183,-1.2945770115553161,0.11563856011925061,9.860634387470952
26.443286184085498,-1.630482705069336,0.11295379935321741,9.86064944623899
26.43812047344261,-2.0004213422874413,0.09797053588353978,9.87427093938434
26.463404918850834,-2.153485395476924,0.12300067593012877,9.883089449787958
26.458058173446798,-2.2343166621970476,0.14281965741945055,9.877177054203493
26.483522945546365,-2.360211883737567,0.12024161499155067,9.870319436453848
26.4779846104679,-2.0673697721167703,0.12592700282725836,9.905962990345026
26.50364024325758,-1.4472817997743488,0.12186398107628262,9.874867679305911
26.497909330999317,-1.046205397074912,0.08205524783901293,9.845015468252186
26.5237575280261,-1.0205501918818034,0.09147159664168615,9.86410890147734
26.517827020996698,-1.1525121734674821,0.10143942763612043,9.875731674823822
26.543878967131405,-1.1258188230392088,0.09594678385833066,9.892108816131703
26.53775377069077,-0.9868122465548618,0.10340262387905992,9.855041824350742
26.56401773319577,-0.6941159728742884,0.10873539258245563,9.882982036885362
26.55768173214245,-0.4158245173074699,0.10273631595522038,9.891132145783098
26.584154696978697,-0.28342030750097597,0.09945025104318934,9.86486166401917
26.577599984526543,-0.14645553571440142,0.057481111323226426,9.869088615320704
26.604288990577018,0.03429407641770701,0.10043630205175233,9.84217022741048
26.597506341577255,0.15026552847307922,0.09227686223953857,9.887189495808917
26.62441409185601,0.29504524654792363,0.08316723895199962,9.855065664255426
26.61740563507976,0.5333613541496831,0.09154774874246624,9.88243932221629
26.644547018813665,0.770191793529767,0.07358651947848287,9.854812247128171
26.637308026039822,0.8962341303108747,0.08114748122262468,9.858572749492067
26.664689281875,1.0865043893272426,0.07862257355356633,9.860509069092378
26.65721164348706,1.29004645538557,0.07231250054605039,9.858251258864424
26.684844596129388,1.5312117047203626,0.07419737862839362,9.866717083336496
26.677120146177533,1.5334567573942597,0.08627516219720392,9.865355713801062
26.705000273788567,1.460806212633869,0.07455271397078937,9.857976946038614
26.69701446079837,1.4708197195331514,0.0770214185750741,9.862658739943884
26.725155123265257,1.482638766836326,0.08255797341718664,9.851533846825022
26.716902732157905,1.5321689089263695,0.0605380962573836,9.847134609568455
26.74530559757802,1.5728235349834558,0.0804608340151227,9.867748311865236
26.736778305873834,1.551549157437317,0.06807498131882832,9.851623880276659
26.76546417044487,1.0470685382481184,0.08242540671121454,9.847289833688349
26.756659761017765,0.8800375545981819,0.0879779774150189,9.882717601289954
26.785631813914875,0.870139052034813,0.09984079931767093,9.888653483577567
26.776537896620216,0.7478138728829621,0.07915803313504603,9.858338422613137
26.8058106934328,0.6339002202311675,0.07348096136325169,9.831855215769622
26.796418877387083,0.4957701130248399,0.09087471435185654,9.878349250239806
26.825995056101288,0.3612150205222424,0.09979245215957787,9.874142196005787
26.816286721079095,0.1876208141940515,0.08690362868292033,9.867750912136552
26.846178864997974,0.05657605458706875,0.08347841888257908,9.867621529216825
26.836153732485442,-0.08908580455115273,0.08859049930364013,9.864540621711566
26.866369182777497,-0.20687304441797488,0.10593085483890329,9.862005238743762
26.85600279284471,-0.3662958141312184,0.09351433199650178,9.859165087125733
26.88656298382031,-0.4394264471062213,0.10494926179014379,9.870736467082354
26.87585624607898,-0.5305464719582114,0.10730232963575814,9.875860143237997
26.90676275215936,-0.6922134980515947,0.10013845539456417,9.86449125515296
26.895692588235807,-0.752122102225989,0.09353450368748524,9.864487478489753
26.926961370434842,-0.7934815557512049,0.09907854922396986,9.857820344285768
26.915527703401555,-0.8098290743919849,0.11247647226595471,9.871426063320895
26.947175813166858,-0.9021632928582616,0.10881983529119908,9.862022913821884
26.935359150417597,-0.9014456023073071,0.11553361618539734,9.86938431946818
26.96740223971251,-1.086397314365773,0.1161093549203131,9.876738512104986
26.955184056856023,-1.0621275511628907,0.11359979319957386,9.88565192912875
26.987630930201703,-0.7729273452583578,0.10564061931723363,9.878304546552863
26.974997492756533,-0.48582201683972803,0.10397538051777248,9.875979989680964
27.007860789034236,-0.30238032295775263,0.09620582787774914,9.842450238503936
26.99479690965949,-0.33315662332157386,0.08439560771896644,9.854906567849245
27.02810054482172,-0.3975569274169018,0.11152696234400902,9.857510538602005
27.014594495048957,-0.3942722935168607,0.09982996268098253,9.881063658956963
27.04836453976386,-0.2897478062708048,0.08885133876797996,9.865073937406633
27.03439022665536,-0.14452373966823465,0.08657820033501096,9.85918529900729
27.068631031908005,-0.028545097532930504,0.09163990949326532,9.855220572120613
27.054167932584317,0.0715970018210975,0.09669657502038904,9.869164069379906
27.088905583297485,0.104540229248121,0.09867825313166795,9.852678727443362
27.073932156362915,0.15007494232848692,0.08347882148965931,9.86401564286798
27.109181422655226,0.26140483137610554,0.09377668968396549,9.857406188102855
27.093680351742012,0.38273265116071054,0.08137035931857543,9.85615640615839
27.129475883678953,0.48504366412764366,0.09049148821218551,9.859862178469374
27.11342454521004,0.4957009629197079,0.08025594213274923,9.861958580790755
27.149785031290786,0.4884438776741121,0.08609157540487532,9.85973930289681
27.13315585972795,0.5548807026350737,0.0805891278302722,9.863821879080232
27.170107585475492,0.586819938292968,0.08423601454349987,9.873003303870982
27.152873459018533,0.5918091519028842,0.07072793267846822,9.861222415869909
27.190444267033584,0.6164386728546838,0.0779664333892423,9.84567859388341
27.172576335223876,0.6051634578622839,0.089736434968934,9.867558142912682
27.210796547972567,0.5691025359405908,0.08815630736663731,9.848818065762524
27.19226470129571,0.5197536167374144,0.07168731342262928,9.874501869488515
27.231165639242928,0.5066343125844166,0.09912377186637229,9.862625755329095
27.211934884077078,0.4145100608886005,0.07873771257710453,9.855423285306102
27.251551624077432,0.2789091035668365,0.0848539570616597,9.845412585713216
27.2315907612206,0.18342109095120895,0.0946579624427461,9.881265553281645
27.271960224550057,0.26956125835095657,0.09080519856734547,9.87147325822717
27.25122216780741,0.207099184805871,0.08943115659434847,9.852861624832427
27.29238452911592,0.01018995413301982,0.08409218056842607,9.854940178894038
27.270833918349897,-0.18368588922482867,0.0868510670607675,9.892113543578027
27.3128378615702,-0.2560093608394991,0.09791327136805958,9.86426309559427
27.290423973194727,-0.34304682116543495,0.08976859494763854,9.864094399914954
27.333309058214663,-0.4167952250616982,0.09144765905911172,9.863270764455244
27.309988022093602,-0.27538889782047615,0.09364461159171329,9.874869628745829
27.353807510976782,-0.14246032961903246,0.09003482619101819,9.884059087427065
27.329524224576478,-0.05046302863795904,0.08385319787502395,9.86049940771627
27.37432734819184,0.0008378063772864457,0.09671930504619873,9.876079326796695
27.349025797942822,0.055360707592836636,0.10029572772725964,9.860581949770859
27.394888850642193,0.07023165920281182,0.10847699852144724,9.862844853653474
27.368509303904425,0.06849907614386994,0.0883335968565508,9.869111328342354
27.41549289732979,0.04484908685529379,0.0975837804197706,9.853820711063088
27.3879517400221,0.0584241035302287,0.09372158031959278,9.863091532762741
27.436121531144614,0.08274512246559204,0.08360117697161447,9.861878719553578
27.40734963039886,0.09439213911449763,0.08753819900895349,9.862689867312008
27.456790079834775,0.057789963772348504,0.08228943459781192,9.854087634195048
27.426699855865518,0.06638536224944812,0.1024644118920598,9.876010821430786
27.477494607129643,0.06729003529834747,0.10123305849534575,9.86379855162965
27.4460009223694,0.08953319995936995,0.09743267142567531,9.862146834881303
27.49826146782721,0.0784432572151204,0.09534027469170431,9.875891385449671
27.465253075872194,0.07814611420593551,0.09202756869663037,9.874038519065984
27.519076726386935,0.07724192252828468,0.08759664607415621,9.872291036086084
27.484439821373986,0.07219061905219001,0.07897811832049481,9.870222774534035
27.5399608397629,0.05353627780641782,0.09980273279318604,9.87066324061033
27.50357493478559,0.06511573051349259,0.09217759366007955,9.871951036139848
27.560920236274765,0.059192255784493865,0.10495182055630557,9.873494361276936
27.522627756148935,0.06763232682567516,0.09000864413260368,9.856067529534794
27.581955187195355,0.0697210875201859,0.10843726324614161,9.856676002372906
27.541596512618234,0.0639104096380799,0.08703977758709226,9.855815166373295
27.60307881836155,0.0617864783653326,0.08723825689054718,9.86399558908828
27.560461010600488,0.06692497788827481,0.08835889843245087,9.869457534710577
27.624301973916477,0.06945737625222126,0.09492153805616918,9.86863646270566
27.57922345269461,0.0621263574226232,0.09007060133663479,9.871175959338547
