Time (s),Acceleration x (m/s^2),Acceleration y (m/s^2),Acceleration z (m/s^2)
27.942988035301468,0.057583806559763064,0.09588771391103702,9.860715358847704
27.911494657175105,0.06861974393197764,0.08653687430098941,9.860020925659201
27.96152470276044,0.06706582845407708,0.08409473516285615,9.853679097879393
27.932922991580202,0.05915065188916578,0.08943099746642588,9.84851228907397
27.980239891018133,0.07344464995758018,0.08814422594140281,9.855486951237973
27.95418156470837,0.06556055319023658,0.08097348802409708,9.867712385224758
27.99911882207598,0.0675334379341786,0.0912668154752794,9.848761909552492
27.975304913005264,0.07616554336954767,0.08842427704108743,9.8664743788891
28.01812117696448,0.0752290725323679,0.09926137049002158,9.857486825263607
27.99631161554052,0.30913683216265836,0.08671600825366234,9.873327517039781
28.03723309121462,0.6650868874948257,0.08016444540229986,9.872126209195404
28.017216780584853,0.7349257770041523,0.07295985218879866,9.83727087183158
28.056430536118285,0.46474726631943214,0.06802554806084503,9.840513517218785
28.038043927758988,0.111033401431027,0.08107945342425128,9.868151260092297
28.075714155428134,-0.23675633305808963,0.10526451656956957,9.867043750911476
28.058797294488926,-0.6403066005181605,0.09417101755814339,9.855468685071274
28.095066849843203,-0.9348269870116244,0.09378291247871436,9.86113971835365
28.07948607929257,-0.9017068498686084,0.10235741250346812,9.879056496059661
28.11447179428182,-0.8453088418694188,0.09578272243391527,9.85966386709413
28.100113879848575,-0.6367981786649893,0.0897574861182505,9.845947279810519
28.133924760555644,-0.46322663889674104,0.09776334827846855,9.870440807951876
28.12069449723158,-0.4113827093739736,0.09070576134406366,9.860063471653003
28.153419187126023,-0.36137957766452644,0.0865166956862112,9.861845895356815
28.141234407206365,-0.1414282473969898,0.09267080657402119,9.875180164454761
28.172961579462854,0.22731336701803503,0.09305710089842031,9.869851199645096
28.16173857128746,0.6759486759282366,0.09001814662399497,9.861465988770611
28.192539228802104,1.128116087302703,0.058595962847022544,9.858329941162577
28.182209198557835,1.3891137820738224,0.0764752498256061,9.860216926826746
28.21214857136047,1.5749436970196207,0.0703490978676463,9.857553414558863
28.20264985146024,1.7916221107313866,0.0675245083323328,9.84122172368697
28.231786576582216,1.9089287662059977,0.0642150388771033,9.83832735712502
28.223066177025977,1.6589593211614335,0.07287213695236529,9.828608879942104
28.251452288431757,1.211300216452066,0.06723542999297512,9.828167003756224
28.243455665688217,0.7789670198571563,0.08475596754146682,9.864450194213731
28.271138684688886,0.34091899274060045,0.10157201375050129,9.860614670743573
28.263823126835938,-0.0008895507408463671,0.09302586348533753,9.84277973521537
28.290845802934317,-0.2742125579414578,0.09294809787130574,9.861003011100124
28.284168066664442,-0.8572835582305075,0.0897642936006441,9.854312285159875
28.310574037009786,-1.5333195369203036,0.0951105963747671,9.863491055133906
28.304501129435007,-2.082795124630233,0.11190297189369339,9.874075516873726
28.330318008513387,-2.766456535397221,0.11067045587075786,9.869475868471588
28.324813703353268,-2.8766822163027723,0.1167681006170717,9.906972065723327
28.350077802102756,-2.137536119292187,0.12676057411674185,9.907113029892233
28.345111100572886,-1.8440798268931753,0.09716304727821329,9.818658763869342
28.369847950445237,-1.4631793304375529,0.09502093740418471,9.83403911851044
28.365391028284723,-1.1203341764119978,0.10901228831189842,9.894691405619003
28.389639089684604,-0.709025931524842,0.11310229857361626,9.880969222615366
28.385669918788945,-0.22312351125367275,0.0873542942391448,9.857257276885715
28.409443475687905,0.3521966955882046,0.081690622593755,9.851932157173675
28.405932670018405,1.1670695185980704,0.0777018926783485,9.867013503718587
28.42926179958295,2.0792183238686506,0.08181738192766969,9.854345950908064
28.426182104772536,2.9493538314562975,0.0411249947415969,9.82983073031846
28.449079721542343,3.5224131246210173,0.04195283523150626,9.822359743032496
28.446411872801747,3.6220217848905922,0.04479139864849504,9.840396298540114
28.468907364105657,3.4265203287296933,0.053668952711064755,9.838933546064448
28.466637371451593,2.948620249250292,0.05700414308417008,9.829069226196262
28.488741843251816,2.5670384525906287,0.05109420395240802,9.811223882373048
28.486855852926205,1.780684577839911,0.07727619176113242,9.87915650968823
28.50859111885838,0.9348484591963122,0.09614572859198349,9.888493376942405
28.50706738208091,0.1703608165679649,0.09194886163089583,9.862970826913186
28.52844748846741,-0.3130735139225195,0.09904111957303066,9.854738617547381
28.52727188532808,-1.1567888356498617,0.11553596923559874,9.862946233991355
28.54831792953011,-1.8973866834773032,0.07857385980373968,9.88503150280418
28.547478371527934,-2.762697979812597,0.12710612806786917,9.871178504456616
28.568195023007714,-3.8700876457171702,0.12863727428856314,9.882412288539133
28.56767340810202,-4.650517169527693,0.1465545298421123,9.903445181077792
28.588076358848248,-3.8884622322202693,0.15664109956344502,9.95722617756785
28.58785869557134,-2.8959994795896598,0.1375445916877255,9.90819077534087
28.607954014277553,-2.560254309222845,0.1151966349046035,9.728328879845092
28.608026930742017,-1.65762583708072,0.05530485517553369,9.890019764980682
28.627837414501965,-0.7862907676378668,0.12623010489212075,9.906786947299894
28.62819892105327,-0.2621732908631177,0.10048706174857146,9.835162837672703
28.647735906425126,0.14076866774613864,0.06252619641594091,9.894473276197608
28.64837025896805,1.0053987811892562,0.07188456593255342,9.84183182986394
28.667634684187593,1.7513820541161431,0.06405069884205843,9.852181842552053
28.6685340727005,2.526327711483466,0.062171813275959206,9.85412983287522
28.68753844257368,3.6243483765777222,0.04702809859938034,9.855926402574253
28.688688765684837,4.277670714579359,0.051919064403358424,9.835079796721145
28.7074390243559,4.109405577749335,0.05461917345205845,9.8315957083598
28.708840954879275,3.5348590522436276,0.04949391325775498,9.815109506349645
28.72735672419902,2.968844913027454,0.04733378865732314,9.798329629814454
28.728991677517133,2.3024010404010204,0.054576673188751014,9.81679655935308
28.74727533797068,1.393628605157101,0.07134195216004222,9.906994620404936
28.749145785964505,0.6967373895057477,0.08907682804744008,9.850454356392842
28.767203121481646,0.19167937755802217,0.08543728318005027,9.894478504796348
28.769286698120784,-0.34013598933949307,0.08324296014705385,9.82638415520554
28.787120457460887,-1.1636330188357922,0.10890323432112878,9.87120060219557
28.789424928359225,-1.9426339047565762,0.0808791332619874,9.876040933179256
28.80704585376422,-2.7960588191770817,0.12099655631240837,9.83723107548904
28.809553918526834,-3.819843548535579,0.13620806238425615,9.88878481534258
28.826971562382592,-4.582692805813851,0.14224536431630316,9.886211833388296
28.829691372029814,-3.815686059768405,0.14479179969668934,9.959166166531213
28.846910658406156,-2.8152523945589363,0.1519793442162978,9.919467655947445
28.84982206161388,-2.52421545079162,0.12421259997587737,9.735520246307747
28.86684589355306,-1.7754104188381892,0.052324357080729605,9.845097640368525
28.869948338139825,-0.9049160783870129,0.12362433426970967,9.935184637173712
28.88678335025067,-0.2520377030282612,0.12666755442052544,9.826745039006832
28.890068529040615,0.1125252626561974,0.07299062687845383,9.885199362937952
28.906720235937804,1.0193167510325671,0.08930808424392059,9.872646970595834
28.910190471746578,1.7722773959024596,0.07006167277741916,9.819337208614044
28.92667457923187,2.5594260502836965,0.06305109532793154,9.858913990770901
28.9303238102448,3.574348023992612,0.04617386557096053,9.832125699676128
28.94662461729563,4.24957410443311,0.03175431387511439,9.838722458827547
28.95044019838349,4.102198355905687,0.037673723900229314,9.830402763443965
28.96657874779263,3.474252937684079,0.03836602389391876,9.817196566176483
28.970559687873607,2.914361850042788,0.04093018764243842,9.810972763162871
28.986519039274228,2.3269371333801314,0.05762239470153657,9.82321156217579
28.990658697967163,1.388835983256049,0.07909988909867115,9.897962680642275
29.00646585782932,0.6906766911557638,0.09985357863735583,9.866474045434593
29.01076766283181,0.14609578629008138,0.10359968805879845,9.873999070774373
29.02641384941143,-0.29482101338549704,0.0991451315294062,9.854426654408897
29.03087105805174,-1.1156404688487527,0.10572237796612893,9.860091701468697
29.0463707344506,-1.8830669517229937,0.06955164663752701,9.87874192949897
29.05098532007582,-2.7613783610047014,0.13154667101513276,9.85135340282288
29.066337836251883,-3.8096869210208055,0.13458696573455464,9.8854071436301
29.07109299485318,-4.488566288299768,0.1276331381768096,9.892947541854682
29.08630120923234,-3.800650445061246,0.15822946526847456,9.937659709454238
29.09119954955017,-2.7835735275267117,0.14010910757946526,9.914534299639392
29.106262341068724,-2.548482664469068,0.12375160595585546,9.76221492268215
29.11129461327164,-1.8287960458437262,0.05737920015373613,9.814783306463067
29.12621671985024,-0.9210076208885674,0.10947191212025521,9.953621752450367
29.131393574590827,-0.2737849662853485,0.11886974061182579,9.845817477009227
29.146182046484473,0.08635381400313878,0.06601355364032381,9.870114647592661
29.15149411720003,0.9970342993775936,0.09026399652896495,9.884548829540188
29.166149410005776,1.7538294762652042,0.05361000674389886,9.820782575381681
29.17159206957897,2.5001185059968036,0.06133225059009334,9.859607356505961
29.18612100607406,3.626277222022786,0.04558092175206644,9.848945456583431
29.191695337499972,4.241830871149907,0.03145268390485938,9.838732990098594
29.20609092383006,4.058618328233455,0.04129160369862613,9.869013692320776
29.21178716927265,3.4375964210204,0.04153669858758396,9.816413322284125
29.226060352640637,2.925395695309351,0.04266876288862412,9.80857006153031
29.231883928354982,2.350127365572378,0.06523654814576543,9.80691129393635
29.246034915739713,1.3983127753021234,0.05997889063747622,9.882618787919373
29.251979156997606,0.6303941518455691,0.10272846419158596,9.881446503455035
29.266010011425855,0.15918467482674434,0.09289581290672606,9.85788228999511
29.272071008190952,-0.3119983809592513,0.09693727590047589,9.873409773486772
29.285986116784215,-1.1258442056326279,0.10865399322660221,9.846684116942892
29.292165507356458,-1.8601228080251049,0.06639085350409663,9.866413069506182
29.30595860616311,-2.7046758083273827,0.13771952791981829,9.833901738112582
29.312250876975742,-3.875951259724334,0.13330779978056337,9.862555208982164
29.325938442255936,-4.402324063194973,0.1235186163681758,9.876488450134655
29.332342922375002,-3.679326127051619,0.1643336204633229,9.957474208362521
29.34591225678717,-2.802025704531041,0.152639627268186,9.905139171123379
29.35242303323057,-2.586791986620702,0.11270706311656487,9.797448350530324
29.36588821594445,-1.8684113841815324,0.05166052328193362,9.78427442510951
29.372506360256033,-0.9355667639779927,0.10971551928863324,9.928731019730355
29.385855809113426,-0.24195975008695483,0.1438387766583696,9.848006316361358
29.39258654111812,0.09241665018935762,0.06180523142529857,9.859783010780768
29.40583630385403,1.0223751973624184,0.075913703667455,9.892370781107594
29.41267644474188,1.764935612770275,0.06766257195818014,9.803779961323725
29.425818200901848,2.4870595931156267,0.061767385526724734,9.843943246261752
29.43275684375654,3.6316202550187637,0.03958390992726859,9.836011582044705
29.44579929546231,4.222780475011769,0.04672594627763964,9.83329175938716
29.452839991065947,3.9648200382883947,0.028086641258887556,9.854585939722128
29.465780595397256,3.4405736541300014,0.053665547887865685,9.819478932710503
29.472919144155423,2.9164581100250224,0.03539538702306329,9.798668885721705
29.485765492684944,2.3557275909572932,0.05157737852947527,9.828307963953813
29.49300543096798,1.3913721070772056,0.05435817937221436,9.880178989096315
29.505753471117757,0.6365481850167726,0.08739649264262105,9.889417977684879
29.513086995778114,0.17255663699363738,0.0869761791208145,9.858855242725536
29.52573893596005,-0.33473431673208237,0.09793957049926573,9.871349676224723
29.533164251898707,-1.1902353967509804,0.12333415620162039,9.851715493370573
29.54571861674367,-1.8720611019852575,0.08163838099651922,9.864296048443965
29.553243643294493,-2.7013132646584457,0.13867958411984416,9.845203623999023
29.565704220919283,-3.7982006216563975,0.1444327492261999,9.879635857365377
29.573325090304028,-4.543046583773851,0.13999190185634078,9.888824385117827
29.585694691395044,-3.5393826375644886,0.17266610403529828,9.963269054991189
29.593403027999035,-2.6684815754181535,0.14123117727138965,9.910203384478127
29.605681416631533,-2.5448108226799224,0.10952530786149374,9.793082924386033
29.613475047690983,-1.915299767083422,0.06941657458403887,9.783065342107783
29.625664754251375,-0.9328697183355021,0.10296452993550102,9.923721540087994
29.633547453883995,-0.18646046321025764,0.1359731160310444,9.859865578160687
29.64564885895928,0.11278225129464407,0.06625765099086187,9.845250613286057
29.653626964572258,0.954910848959647,0.0771499388067983,9.897629843697148
29.66564252456,1.7503649086666129,0.06031080360800147,9.818074367926355
29.673703138117432,2.533157493142256,0.04772173101417937,9.852792725462647
29.685633658322143,3.6602255765524454,0.05238671300316233,9.85420836147231
29.693780940759613,4.270184435573668,0.02072336118379111,9.812867745787972
29.705628914689736,3.9558775385212632,0.04425314437730162,9.846192199810273
29.713861569960923,3.3042042185662117,0.04419865085607972,9.82370179054647
29.725623260856292,2.8889026768430197,0.057209392129675886,9.81076115952904
29.733943901453905,2.3964586621319457,0.07330895140239857,9.787339218597612
29.745618566996047,1.45542643473457,0.0457958328959096,9.849017271706243
29.754014716316323,0.614445264578475,0.08829459513253254,9.9084040810186
29.765605315266814,0.14237183511057738,0.0929535237408579,9.864073573283958
29.774082603396394,-0.37847885643828205,0.09671979155402302,9.876345626316581
29.785595621933897,-1.2222520667449341,0.12188574579443477,9.84391591386075
29.794148507655855,-1.9128827343297994,0.06317866487438485,9.849965121968935
29.805583374931615,-2.735759767509008,0.12913771512048672,9.831443242919454
29.81422308220876,-3.8550748723964054,0.14590828991282592,9.885879420404498
29.825577837139654,-4.4662180240500335,0.13091030262923098,9.889226158105867
29.83429178402331,-3.5814457807276927,0.15654593429733238,9.961421496389754
29.845566231599197,-2.636885623277986,0.13198893468383388,9.90628443311675
29.854363540216518,-2.5627934769157794,0.11620897574385158,9.818116176895597
29.865563299486897,-1.9265194252307862,0.08262822058410936,9.789598956474228
29.874433127210523,-0.8725218251897844,0.09399011081757198,9.91816233707294
29.88555804878396,-0.18214894753526412,0.1287819274088654,9.87186810694806
29.894509280335964,0.12451391471661141,0.07332651051063739,9.842455463645777
29.905556124868856,1.0412886998525581,0.07431311569644919,9.910069931629195
29.91457678646331,1.7865773445576094,0.058044732695948564,9.832282962749508
29.925546701420927,2.610053950399085,0.057289430919106814,9.85394338080838
29.934649753678517,3.618451861050657,0.04738409801451061,9.830093688128535
29.945543335447443,4.323040899121094,0.02707024572576469,9.814821921992378
29.954711476604057,3.9109340808516517,0.03429388990094751,9.838236690286378
29.96553263867312,3.2806976428646997,0.04330410031191608,9.844575505823983
29.974779657830243,2.8862337772820905,0.05513935700231602,9.813415039104811
29.98552883367946,2.4210840637961195,0.06303789872195437,9.796058125489935
29.99484750734714,1.464610633904593,0.0504791434677254,9.848466300981778
30.00552275088418,0.5945927827934288,0.08079142201087992,9.912650385646959
30.01491926979538,0.05177428213991278,0.09738754078499126,9.863383151412142
30.025524803591942,-0.4514352886393735,0.10178809752130992,9.8837306730192
30.034988540449017,-1.2150726245578345,0.12449607182811454,9.874399046459237
30.045521565203813,-1.8830962058403875,0.05522058413340088,9.85123472935956
30.05505286671896,-2.843601013898292,0.12940675398810667,9.85593832658893
30.06552084945092,-3.97936838027147,0.12972581364239108,9.880455996184178
30.07512468455798,-4.502912451659869,0.13319797695372157,9.895877370382337
30.08552343383513,-3.472429563727687,0.16241870927646115,9.96298981899799
30.095198560942205,-2.564495876789075,0.13844151987334052,9.899581080519722
30.105522648474743,-2.5170607969166534,0.11318447403049257,9.83018225112505
30.115272224520766,-1.9342878093028377,0.07578384356755147,9.771441450041856
30.12552112275476,-0.869944404533014,0.08382587630024907,9.906332385026987
30.135334178386696,-0.14062058047346973,0.12747233714755804,9.875007194644411
30.145512281595384,0.13584797598255938,0.06398283237299353,9.84945259438723
30.155399943015894,1.0507480808701124,0.08711505446319476,9.899369067426546
30.165513729002278,1.8301184045708518,0.06540244802357874,9.826998371803853
30.17546723393233,2.6903772282467977,0.049229526005497404,9.8442399776218
30.185517104407776,3.859863810937505,0.05411105106421252,9.860117864548029
30.195532069415634,4.356431808819002,0.02417069565552223,9.812926051710479
30.20551407209958,3.8731456710411263,0.04698927529230193,9.860117878318754
30.21559936708132,3.1769176951956806,0.04950553852373341,9.855166974230732
30.22551719406843,2.8373710453503613,0.053277182968123796,9.810108628758039
30.23566165813301,2.3933181887669415,0.04942727638007783,9.782752408659974
30.245507225454674,1.4690471687155957,0.05541925446267146,9.853027639002079
30.255724795857287,0.5295507090412871,0.11329884912391099,9.919362510721124
30.265508522930094,0.03503698752916921,0.0992865457838989,9.846753043067146
30.27579055451945,-0.45738291974841355,0.09916160998182313,9.87893403258659
30.28550463099057,-1.2622802212428446,0.11608216350550961,9.869967389082825
30.295852729633626,-1.9682419260203823,0.06422943856101457,9.852973940420107
30.30550459828324,-3.0010818856910606,0.13969105667155232,9.85642083198556
30.315928869356085,-4.043356430414019,0.13146242537973538,9.876650288980318
30.325513097412887,-4.46407861609186,0.1443765777541718,9.887367606764032
30.335987823260865,-3.4212430768744206,0.1656186228185021,9.975942781534183
30.345506672598514,-2.5639640886125807,0.13388679920777932,9.898401961046106
30.35605040861875,-2.499436668874521,0.11707676538192885,9.839600930676514
30.36550922045416,-1.9514800303997129,0.09851174680550998,9.780301789656534
30.376107650585272,-0.85172150128534,0.08085392916897836,9.896268800034907
30.385503652414553,-0.08225199939294077,0.1328753076328223,9.883023902662524
30.396178720224608,0.19638742198408873,0.07242297254117142,9.84514670702133
30.40550700920417,1.1284746674780712,0.0785694854348293,9.909106834030256
30.41624190871167,1.8948248227927615,0.06247418866554138,9.827485925387638
30.425506181645815,2.8387327700588654,0.058272030866705876,9.860698365952276
30.43631003032497,3.9334926611256535,0.043101092711122085,9.846608581753754
30.44550407665618,4.317343860526381,0.03182791133606665,9.820039367542952
30.456363399953933,3.7917441862562398,0.055355260048650164,9.839862571168771
30.46550282007682,3.179044074605408,0.033197749546152726,9.846442529146657
30.476431222697265,2.8109690454559453,0.06419875204009805,9.825608455044964
30.48550321744358,2.397769968018569,0.0554042396771324,9.770749604464063
30.496489763822353,1.392617660879699,0.03826858486811776,9.841129880483555
30.50550773379965,0.5068983021645005,0.10274095328605895,9.919990864204493
30.51656220042789,0.0065205740358035445,0.09724816744115834,9.843481609216742
30.525512330141105,-0.5581113759228298,0.10036930854116224,9.869615282600124
30.536622843139792,-1.3497086705011354,0.11289058265978562,9.880147398762412
30.545511276059038,-2.0653570578186766,0.062061362896134696,9.842108267915904
30.556683212297415,-3.102337614492343,0.14229046328981584,9.87055672397295
30.56550908014429,-4.0915613766105405,0.12585971244159755,9.886169231259968
30.57674163080434,-4.5026838966562135,0.13196521082675164,9.891540697861101
30.585507487553087,-3.3642057745409133,0.15734946470880667,9.948420425488873
30.596815166429323,-2.523861991357666,0.13797466255461438,9.878713067664062
30.605519198399314,-2.5097024845101377,0.10665910390946816,9.86115827641102
30.616887856946224,-1.9780176741066315,0.09900780383947858,9.780831761391887
30.625527757006008,-0.7931158626574161,0.08104697954157372,9.899581681739175
30.636949817216227,-0.06025439175181453,0.10747329231666843,9.879848813907998
30.64552724258333,0.32154771715239827,0.07626808433944908,9.836681188006388
30.657006796773665,1.226086096128739,0.07890277316480927,9.896609062860861
30.665532041908484,1.8819522404917686,0.07101742404803245,9.84648693155897
30.67707637644216,2.930364860877797,0.06398913902644227,9.847051039136248
30.68554228685287,3.9956148888816463,0.04502878826210119,9.831928566956021
30.697146746759056,4.351626309142446,0.026403253096937015,9.825270684970949
30.705544609785758,3.8971680325082287,0.03818633887708112,9.828836640799556
30.7172044904001,3.1702798203701947,0.044298083197477384,9.863048068512613
30.72553268873558,2.754916392079876,0.054128075494069866,9.852760764521921
30.737256134790687,2.3871884325697033,0.0667739747301165,9.759999967819901
30.745520709068746,1.3751600195253781,0.023492326111293302,9.828039787181773
30.75731014976393,0.4598199943252518,0.11881832158320826,9.926782614697569
30.76552487767815,-0.04224653204724875,0.09820681652471823,9.860843114404128
30.777375010738826,-0.6006256640983495,0.10530960465162893,9.890715631962959
30.785526740057165,-1.450526003926619,0.11066792514330048,9.880453416058186
30.7974324364207,-2.220582104444378,0.08397506452283958,9.841490187805288
30.805522186136866,-3.2107960599214587,0.15022411207573136,9.86407658491203
30.817494237710243,-4.236470093602045,0.12446056369883661,9.88840674008373
30.82552175091777,-4.429706371937619,0.1485320237549991,9.91007242737818
30.837555128379922,-3.2476238020166184,0.15164633826221643,9.950739721915856
30.84552322979309,-2.59333694580582,0.133762631672202,9.855265185734005
30.857622461531765,-2.4520328586552953,0.11032386050769975,9.90411508820818
30.865537219189243,-2.000233251799803,0.10739365101749786,9.765965783644502
30.87769719826964,-0.8002500836566265,0.09556835771643142,9.880650682798136
30.88554876124925,0.034300175766633856,0.12671516211412437,9.883792056701612
30.897762491069958,0.40232346308503375,0.05824002144791324,9.827071263356373
30.905552675146573,1.3026628077492601,0.07198558723308326,9.88518695170477
30.91782526052482,1.9854961470002872,0.06406085718106155,9.84735600042809
30.92554841833005,3.0266813844599594,0.043961384000382145,9.849208616131113
30.937879920967166,4.16630493203609,0.02874249309772874,9.837349523354623
30.945541699244085,4.319921659985592,0.04218848386011126,9.819065724630144
30.95794678560101,3.828216737441018,0.051884043167102656,9.82704708508835
30.965546894835107,3.19112452574979,0.027426407505603947,9.864205492515953
30.97800524342147,2.67884259747321,0.0697809889650226,9.859453893513413
30.985542597651083,2.357348091118732,0.06097282457846711,9.746603228924384
30.99806425433308,1.333669312888536,0.024753453967930966,9.827649089829219
31.00554264257513,0.4371869137185394,0.11204551993309234,9.929624128695956
31.018120034672126,-0.04104406770067156,0.09338814151463305,9.849505261832299
31.025538941949552,-0.6281192583488656,0.10490578308134937,9.892110830261064
31.038182973974617,-1.5638815669785642,0.11708191653723404,9.860362218988977
31.04554042741166,-2.3025034919465233,0.09172098384630442,9.832723310409714
31.058246115952194,-3.321678008332569,0.16042632154995867,9.8667900267147
31.06554206155862,-4.3723393013932546,0.12391142069585204,9.878444216238707
31.07830962217657,-4.442014901516338,0.14848828885289359,9.88564206306991
31.085543140358176,-3.201304807331546,0.16055383735325085,9.941348740111733
31.09837286294162,-2.5558805721634035,0.1190164212719741,9.849244806148448
31.10554416668455,-2.392714855759741,0.11082992145949713,9.91365287016107
31.118438121687493,-1.9191999531361852,0.11704881976581608,9.76939191715035
31.125552895160297,-0.7817273591363816,0.08438239358456223,9.852332743732742
31.138505752126182,0.0332105658496601,0.12206757334708085,9.884836801034458
31.14555405698392,0.5042329522761231,0.07518139604912832,9.83665473854744
31.158569906348607,1.4422726290628978,0.07957870032330015,9.865907699398159
31.165557531449306,2.134983626290955,0.07146446438410346,9.859006864768947
31.178633340918566,3.230923285379001,0.05264866215244993,9.836368195254654
31.185551366809698,4.148239678033429,0.03275118253943562,9.848483644029681
31.19869338622511,4.337366180109238,0.037359337488788856,9.835263236964144
31.205553014132263,3.799226063787637,0.05633129842996542,9.82314052987982
31.218756585768784,3.1354535348363295,0.03745225049294552,9.85949532173971
31.225551134216285,2.6453179934749005,0.07234969296924715,9.872917532408113
31.23881883611756,2.356523166665859,0.08513949582898556,9.744525035802251
31.24555157401101,1.3055909744053495,0.02726962448560595,9.785212100832101
31.25888269905615,0.3711418099990483,0.09859886897525845,9.962376782225466
31.265551615087432,-0.0613872851158239,0.10101358398642458,9.845527789907775
31.278946897318402,-0.7140908126552912,0.10251955992559636,9.862920541016589
31.285552369823584,-1.695855041218697,0.10750109061380803,9.880087111614815
31.29901092908362,-2.5253588071817967,0.08849263990755483,9.851775933520695
31.30555375848363,-3.493094949886503,0.15649714940296197,9.875438710980083
31.319081698871628,-4.3542048604443195,0.12655399730780464,9.873641873529367
31.325557038693933,-4.4548307258586375,0.13917836203925554,9.887472072518213
31.339146300892015,-3.1527920450755977,0.14135309224504944,9.950341586845706
31.345557058462617,-2.578421624559207,0.12570871689115556,9.814259292227757
31.35921160157368,-2.334694653805969,0.10027660973097091,9.935984968241394
31.36555536974761,-1.8231106342108165,0.10698970065297979,9.786509929840395
31.379270447500616,-0.7894794352277084,0.07375309955506568,9.844314359934998
31.385551466051815,0.11802717139610223,0.10633422196121663,9.917911424427706
31.3993358558808,0.6958634387377827,0.0780735195075342,9.844185809481907
31.40555095857913,1.5909003457740547,0.06983173906883836,9.85243477527978
31.41940153368974,2.290704471217476,0.07065971244853886,9.863222849147606
31.425550078564427,3.326812229735717,0.05704813279804887,9.822464123220165
31.439468441299198,4.147742512557566,0.0355054309349861,9.842834340383966
31.445549502893467,4.255601302879897,0.03355762847534094,9.825320795445224
31.45953658292006,3.861266905380549,0.03689663226887379,9.822437325258667
31.46555514145953,3.163850628049077,0.04080979505212585,9.853148174785565
31.479612009493017,2.6008519119492965,0.0629851158873107,9.886883530795592
31.485564708422466,2.2873436325580125,0.09220375240411746,9.767938286430695
31.499683829192783,1.311664164370644,0.018343597590734104,9.768265512372734
31.50556802655453,0.37970896229308126,0.10118606284701578,9.965855584080561
31.519753433130507,-0.1400603451715667,0.10167874276164068,9.846184514155624
31.52556116533694,-0.8228071183284568,0.1149991254095607,9.857327644238415
31.539810785834586,-1.8745948874163296,0.10819826099198131,9.889580835803837
31.545547908551445,-2.6930868451371137,0.09814261818146572,9.851899900461365
31.55987769961944,-3.5560604952214825,0.17515694892691216,9.879328846819808
31.565551971257026,-4.489688738800006,0.12158221780905452,9.89146463437418
31.57994411238048,-4.411455583814587,0.12929805257047405,9.896443797984688
31.585546512898016,-3.0401321212047225,0.1492611582490193,9.937591660426337
31.600011369145,-2.598908293315209,0.117802722107827,9.810816408482914
31.605543791085285,-2.2393738586876646,0.1067858276047354,9.937725372448405
31.620073118021264,-1.6903878019988328,0.1125812364956982,9.79337523720259
31.625528845159312,-0.7867279056168365,0.08161753812293716,9.807168756396623
31.640137313288534,0.1340129040911687,0.09514746229051496,9.914222240874128
31.64552994071001,0.8592157564503801,0.07653426113917189,9.8542488921162
31.660209948428385,1.741335556543753,0.07761576853824359,9.826706220088862
31.665526244242173,2.3202044436076905,0.07200879997336072,9.87881068338605
31.680279239159038,3.3978955290148494,0.052322393293406176,9.84433632151567
31.685522944635032,4.09306170118587,0.04043857422708229,9.855544107066201
31.70034966422383,4.264800734625402,0.037171097522198784,9.841191645092483
31.70551746411226,3.972581420344356,0.04334715408048259,9.808530643471764
31.720415612071015,3.146356528116588,0.047122194157280445,9.85195904170012
31.72551189162458,2.5233223431669094,0.0559293981069561,9.879920393817532
31.740483631171035,2.2089092472252516,0.09844353558625232,9.80965994596347
31.745505324200405,1.3351843053561936,0.02389466786247155,9.719739979283172
31.76055127280552,0.31085492889337324,0.08452464431071503,9.962303491856986
31.765498066238948,-0.21852084298177657,0.10893269426693457,9.847540209817685
31.78062788445367,-0.9586271276873642,0.11638909595261461,9.87046872366214
31.785496231283805,-1.9746846534444575,0.10585335284360714,9.887582664630136
31.80069923457832,-2.7793671768075567,0.10284471869602653,9.853300961336014
31.805491002371877,-3.711606559560697,0.16796628436347677,9.879953634239172
31.820770858899504,-4.624502534359567,0.1249179319055384,9.871914204729404
31.825482232963658,-4.394186080212112,0.14667882948053151,9.89744465867327
31.84083527017987,-2.963431896873175,0.13850422377718777,9.952384704909957
31.845471073281143,-2.469480205173885,0.12071019463738723,9.802996532182808
31.86090667845945,-2.1057629758258893,0.09819638256231017,9.929569644696045
31.86546332593138,-1.6361438084061712,0.12505006530369622,9.817188408438673
31.880985803759767,-0.8520941113530948,0.09441711598242904,9.798745323011113
31.88545957591073,0.13538011458949714,0.07266741352883678,9.925805085705111
31.9010623954766,0.9149364030365609,0.07976374322069565,9.848552189944703
31.905458713199042,1.7892832041879534,0.08013330341964041,9.821797051522594
31.921139384943093,2.476729264109759,0.06499841867088958,9.891802006364324
31.925453450998173,3.4633127601477356,0.05474287657852877,9.827629128574548
31.941209666473487,4.153751730484137,0.039035672923558015,9.842355820084348
31.94543947409076,4.392868741724864,0.0377921599594554,9.817923847061392
31.961280499909808,4.013727066118155,0.042605364469770944,9.816542392975299
31.96542169291036,3.1014380798933425,0.04655185030299485,9.83208120506956
31.981352036409753,2.3790377965171734,0.05906891553856425,9.903323532896513
31.98540650862063,2.095234244108527,0.08340856054787464,9.819053600920766
32.00142470284391,1.3578964250636472,0.01315337365882816,9.704154200491114
32.00539564484493,0.2732894921903428,0.06838721171519192,9.946695452808738
32.02150069020996,-0.3135796780234355,0.12618388657945553,9.892009079978907
32.02538379745568,-1.060359085501552,0.08943229412703259,9.867859038799768
32.04157897300882,-2.0216783231533153,0.09618035511854078,9.865439127453923
32.04537693010639,-2.8595740248773134,0.11517502773311956,9.856021204711647
32.06165801063664,-3.8220728022569834,0.16029838201414806,9.893992564947043
32.06536450413374,-4.867272468723938,0.13148524359945338,9.867719126094649
32.08173925102861,-4.389527381961537,0.1395299307016255,9.914781287474833
32.08535314848393,-2.7925047247758945,0.15459388685762912,9.910081348907719
32.10181599491988,-2.406990660757811,0.10973043388045955,9.799722287448278
32.105333229824836,-2.027652885749539,0.09525899940227937,9.910432501302044
32.12189366040041,-1.5733888508978218,0.12833754231574024,9.846309189953653
32.125323549674846,-0.8819976517449439,0.11614457928954312,9.768636692688512
32.14197791624198,0.1211024019008225,0.07198936049241073,9.925871133945094
32.14530986006023,1.0949308523106307,0.09434526134539323,9.864215936316176
32.16205985553076,1.8705308880913043,0.0625943819415878,9.803400011760846
32.16530040653471,2.5032373769577885,0.06123612735610872,9.879011219386449
32.182144092250994,3.564865989551285,0.05071602957887785,9.842849216342596
32.18527956356435,4.268733358448131,0.030101977153412656,9.84550315690948
32.202229618362445,4.387723179993742,0.03920791054390477,9.836037480742597
32.20526696683743,3.981077428899968,0.03323686708792798,9.802680879410358
32.22231149640473,3.085820811263329,0.04146455367187759,9.835554948804456
32.22524181006353,2.340871187483351,0.0689755669250522,9.894095745607155
32.24239470651237,1.958853217273914,0.09032558105154642,9.856087445184192
32.24522346458279,1.3563949655568093,0.018384472441646014,9.6698425994465
32.26246795930121,0.29785220322149303,0.055648971230423755,9.910722996480173
32.265193844164465,-0.38537043008910393,0.14862220490623343,9.884091568819628
32.28255467576958,-1.1383975302940665,0.0913763404124965,9.87138604770964
32.28518010195647,-2.1392163018351575,0.10286039015481041,9.881132583786593
32.302643142303985,-2.953927256459359,0.1216245492457433,9.876350133775517
32.305158168179574,-3.9796847988771877,0.16585731492135816,9.895119829227157
32.32273507582354,-4.885455535816195,0.14065482650882166,9.872370285938764
32.32514329809782,-4.261779779832557,0.14290249469960134,9.934514100448968
32.34282932980493,-2.7470525409378146,0.13902404575335306,9.878649466745875
32.34511358747029,-2.3562293273558694,0.09821546019534359,9.821455451542535
32.36291507302626,-1.9684645924952235,0.08974149118932136,9.88898215388107
32.36509068301235,-1.4895541073530825,0.11889226926891311,9.882000354716896
32.3830090447824,-0.8691312926477399,0.11616345529997621,9.7778725396393
32.38506689251078,0.08356969100236154,0.06281567890187395,9.884473173796623
32.403098185447504,1.0999941576503125,0.0940909875635954,9.88223516471253
32.40503912419545,1.9658793280451368,0.07100781949063562,9.797981223368119
32.42319461357993,2.661076751999706,0.0558631298052559,9.887054990673127
32.42501322321432,3.580887817807371,0.052238595401815156,9.84234352463364
32.443286524916665,4.3087481742154194,0.03392620565082891,9.829298652028898
32.44497738790424,4.4665410369273015,0.03137766838174359,9.803410697431161
32.463382792560076,3.9789784220690914,0.030255769009956062,9.828033137419318
32.46495009550712,3.0426031438682597,0.04632260646167123,9.802832397974795
32.483474766877556,2.2653457483547643,0.06303692017186749,9.892222498354359
32.48491217241423,1.8046798793303422,0.09686544691131083,9.890386368589558
32.50357155649935,1.2702922191697619,0.03212436913900651,9.689951025253647
32.50488044596052,0.33939389110624896,0.041017006773850694,9.873585539390962
32.52367269335206,-0.42091458188896175,0.15674852223891042,9.915046804529226
32.52484724261115,-1.1902014517172501,0.0883518145416491,9.854557068764095
32.543774940832975,-2.128608720907894,0.09026959132137269,9.857705898593931
32.544807314999076,-3.0251831221005663,0.13143697620968203,9.872333221313452
32.56387193546846,-4.140389859282822,0.1496750723479033,9.899262611770045
32.56476132147906,-4.992693197719754,0.14337087536890336,9.878505877196824
32.58397090239857,-4.219290465208112,0.1387855863364732,9.932940609688163
32.58472413054477,-2.6402732649203258,0.1567718032428233,9.869348522978086
32.60410171303602,-2.3215971189741738,0.0822723807919777,9.826948046937591
32.604752573992094,-1.922409013905323,0.09965292142592541,9.901483117857651
32.62425645805787,-1.3511470536046148,0.12490200495990152,9.892218787918367
32.62472062681477,-0.8433063892834269,0.12494580154635009,9.777551048488004
32.64437094123784,0.040653344384954215,0.0596737071267659,9.855279341895121
32.644669773811096,1.137738734013397,0.07622304954078644,9.925669251594757
32.66447272790621,2.1266475247714234,0.07823831857721905,9.793022742305684
32.66461433868398,2.6750480758086543,0.045299239891970274,9.860623707582949
32.684578635081074,3.6646665624667167,0.04021777043157448,9.856202764491425
32.68455736400865,4.399046242586799,0.04429726410112873,9.828068199353833
32.70468902686878,4.4459861461029515,0.013108920375409732,9.808935997998313
32.704499496719535,3.999597186831173,0.03373420941796366,9.82031960222066
32.72480599155065,3.0068375371314713,0.04096414778784771,9.813136560693877
32.72444706278274,2.2037159741911125,0.080006210790071,9.893931161288736
32.744925502658205,1.6972879148125908,0.09261647209799724,9.905132419552062
32.7443931375787,1.289192544889411,0.058369083721228426,9.713270016149844
32.76504822482134,0.35196975241289796,0.048505051809446746,9.814603299943036
32.764335237712146,-0.46490333354419916,0.15565930617265866,9.920594284688644
32.7851722807099,-1.2617027125530869,0.10710969849364042,9.875529016844379
32.784274782859896,-2.262384344419819,0.08189725574056847,9.851324134098267
32.805302486325076,-3.0975811612983732,0.1532113481488464,9.868118170402148
32.80420912314425,-4.187929102629638,0.1570860158400128,9.896982838118634
32.82543368989724,-5.02518167126749,0.15248972081728235,9.871346456642772
32.824142204714484,-4.093357829226843,0.1421003238730549,9.941625406232976
32.845562854898496,-2.656814347769785,0.141709960012541,9.83291030233134
32.844076048682965,-2.299548699149062,0.08481299028989676,9.84268668903217
32.865698108674955,-1.8557739256474233,0.11188415978165545,9.864988340227818
32.8639997179271,-1.2649358313075254,0.09348310246829679,9.885640200185398
32.88583354209872,-0.8501999872924054,0.14084598234866744,9.829527947878042
32.883920766242944,-0.05850395037292377,0.061245783301684696,9.80671138668119
32.90597779550262,1.1803248997504325,0.06947759618589062,9.920526227783954
32.90384094712485,2.1871375316177555,0.08171621047897448,9.82675959912674
32.926127798121755,2.785257807139602,0.06263165076733618,9.864052693818477
32.923761977093925,3.733595154417094,0.050198522064389725,9.859407508986878
32.94628042591242,4.431324261557509,0.023616929871478082,9.841113522018354
32.94368487495517,4.431036384739673,0.02125704942040019,9.799954173243881
32.96644129154514,3.8789078006505564,0.036695371386990305,9.819416582336375
32.96359007208095,2.955122568601483,0.03493253214715875,9.790682463659879
32.986597727813326,2.215498231040035,0.0751563546857176,9.868506325205303
32.98349785995166,1.5602575045294804,0.10615906356008219,9.917442235405149
33.00676706922395,1.051907789088023,0.07762974612680049,9.745969943597697
33.00339094725025,0.24819959734266575,0.04629416313614872,9.783361217296093
33.02692511613629,-0.787004643476505,0.1376573852554994,9.936946859478162
33.02328237303954,-1.650460459167513,0.1243752383028192,9.88379471547727
33.047091271506446,-2.5909579782039573,0.0830809706665651,9.84284761350284
33.04316030401151,-3.49860230113306,0.1597528916545221,9.881105725145382
33.067259982045115,-4.2838555188985765,0.13479273267920955,9.900447068184805
33.06303973608124,-4.526791857598131,0.16659201729327033,9.914176473078554
33.08744441742249,-3.101604580642937,0.13306290038318996,9.932106374043835
33.082916976867864,-1.8239505307917847,0.1139909496743679,9.838181159277873
33.107639831479574,-1.5416546126490263,0.06757180737465206,9.818866181130181
33.10279689620755,-1.142948925264757,0.08691166651321386,9.859957488288813
33.127839586211216,-0.6970510943301802,0.12386242410462671,9.860870360404592
33.122660459327655,-0.2100811076176888,0.11230679102017765,9.874468644741285
33.14804530111396,0.6324727958247148,0.08369568408344476,9.82328839018396
33.14252392917481,1.7154367442502279,0.05440969778558028,9.896446005124204
33.16825768355489,2.3482714451905022,0.06464261046413217,9.830917512417939
33.162371346943,2.7184789576472084,0.04429761581127382,9.813603777578004
33.18848402077139,2.9093206130439584,0.06318392307726997,9.857360204883024
33.18221616239193,2.77601266978278,0.05642616204593503,9.845594520760528
33.208710485575345,2.713034805789746,0.04497512668093347,9.83774603724948
33.20204118963187,2.2970005693572046,0.049631692991650454,9.83834134674762
33.22894268705099,1.4037779630968612,0.0847072378907598,9.834439385101613
33.22185586261743,0.8521672160572354,0.08582941993855049,9.839722398048723
33.24918131741475,0.4076936720068833,0.09358661477889245,9.89149667311136
33.24166365341059,0.20941998965498257,0.09424114286398041,9.824463740374094
33.269440331538604,-0.1906632432834067,0.07213968947634519,9.790756855507603
33.26146352632968,-1.001189941409714,0.09520069480157996,9.890375648876892
33.28971081846467,-1.5690286653094077,0.1292743790420042,9.895582619701285
33.281251169581054,-1.81460046568796,0.11368543556587324,9.865174637929154
33.309994528958995,-1.9741769130531512,0.1193349625781243,9.860482966756804
33.301025457104394,-2.134923943426477,0.12233829576980537,9.892928256909839
33.33029201135068,-1.791122034315627,0.10941245949037127,9.890025117530946
33.32078518378503,-0.8921738000491063,0.09678095197255074,9.865969776849864
33.35060465612217,-0.3338685480055632,0.09244438069092215,9.844357523024039
33.34052879301851,-0.19702050572759322,0.08121377038608059,9.84677857525907
33.370933942747996,-0.06529894205493629,0.10347917365452192,9.83974158983449
33.36025599206578,0.173987987615401,0.09549763131665338,9.86138232352779
33.39128179960121,0.4050230153953034,0.09122463489734617,9.85909120170953
33.379963381429164,0.6723664024953211,0.10117520792316176,9.869607118408323
33.41164928499965,0.9536509254419179,0.0911127445685676,9.85237323503886
33.399649692689984,1.091957785213,0.06842486057151087,9.837555131003342
33.4320393304762,1.1144075429283102,0.06880551621076737,9.870466036099721
33.419318791662896,0.9517865052305399,0.08590319814513839,9.82389982788411
33.4524576472898,0.7481880518678382,0.06797192788179919,9.86424169382901
33.4389565942601,0.6542591071782118,0.08009315268544326,9.859723807312706
33.47289833936941,0.3245895864003217,0.07468799173050032,9.860999167406147
33.45856603549905,0.10699017095041907,0.10420606079357232,9.852858272939589
33.493368212645954,-0.19587599173881065,0.09475843448666481,9.866695158413492
33.478136924897875,-0.6328089344142032,0.08637458008698876,9.853162518953754
33.51386811753802,-0.8133039199502899,0.11049726067735523,9.868891322602867
33.49768104256691,-0.3357836655864377,0.09077412947730856,9.89741511871666
33.534416544331236,0.10613078166049675,0.07602943641937536,9.845720561154648
33.51719219976497,0.19569562417491232,0.08082478367956102,9.836946468366284
33.55500335749889,0.12943600362888294,0.08846148791745416,9.86163261618893
33.53664898833954,0.02223037764610264,0.08832707478833415,9.864167129964544
33.57563607336118,0.04338146554026773,0.09259440740767856,9.853012981221742
33.55605317524714,0.09949666229395028,0.09079185383078037,9.86934607889059
33.596316851279184,0.11959817877846828,0.0885507860178201,9.845881119020474
33.575392384713936,0.06433062460097773,0.09678871509612104,9.865194254030829
33.61707082998549,0.06876279663735728,0.08371437010637267,9.867946074308218
33.59468281808373,0.0799308396339936,0.07953047782460063,9.840800878475443
33.63790483613824,0.0858502961032454,0.09564659184559486,9.853260366293105
