Time (s),Acceleration x (m/s^2),Acceleration y (m/s^2),Acceleration z (m/s^2)
11.120624320999982,0.06508217598455598,0.0895402387150829,9.863834810216062
11.083786495900263,0.056016877569791845,0.09163005804737427,9.869545559537066
11.137229307452673,0.07104779236242342,0.08916750184685748,9.865408104785768
11.10682097047509,0.11182329079889358,0.08002143382037152,9.875434735641102
11.154711905943461,0.22653265354459945,0.08443051262529358,9.870125273927828
11.129166235896955,0.24810821062367278,0.08190845041621889,9.877400868070435
11.172766979036274,0.10691925511468578,0.07320197875713991,9.853109663234722
11.151028025254213,-0.1701513030625581,0.09041183795393606,9.877881817942654
11.19122765084224,-0.3550823962698029,0.09223843701256614,9.880994158907662
11.172549691392003,-0.40513039339314144,0.09898546073900663,9.8835574380077
11.209978695233177,-0.3860153364392284,0.08455692935164269,9.878210979023136
11.193813358713728,-0.20342582443165255,0.09794949834439277,9.877821227827589
11.228961460016857,0.14752569647675004,0.08732658341007422,9.875391249728644
11.21488926117872,0.4950203797521453,0.07530448220513125,9.873155341033845
11.248106405338694,0.8325381319042121,0.0700955483951549,9.873141847340765
11.235812771766414,0.8441325955341684,0.08064187278092659,9.843782298868796
11.267384999219471,0.7977298313942093,0.06757574826512087,9.869161541791462
11.256612903882454,0.7443066424145168,0.0790014011405526,9.866813767347717
11.28676434103905,0.49381707331536867,0.08135594935584059,9.882859660231867
11.27731265590134,0.06476698021399438,0.08912662623244139,9.865258740366741
11.306233380176497,-0.39090369841187644,0.10192314044561986,9.869286633678385
11.297939280811928,-0.9931851936858133,0.09200818331692262,9.87493945012584
11.325781272505273,-1.3667886779358611,0.11223960688938281,9.875657724307532
11.318506081407,-1.1673748691608359,0.11736790514562065,9.880913420931785
11.34538348179166,-0.7843176694762856,0.12160485475613353,9.879328218084636
11.339012396558477,-0.3418678816975915,0.08952803746049674,9.879553878079891
11.36503324208573,-0.013990288073309104,0.08797474327486596,9.868890120332793
11.359465189173756,0.22302480233549346,0.08549003888986567,9.872844675708068
11.384721883481475,0.6352710791852841,0.08236478390026167,9.870166339447014
11.379884233512573,1.2929548070386296,0.06456169980288669,9.868861726419237
11.404452943383568,1.7287294817111871,0.07600979577487724,9.857991499294005
11.400270773089739,1.6747852054936223,0.07071009814112676,9.859947734015083
11.42422011276031,1.459123151826661,0.06260856324322489,9.86701819264117
11.420635304793361,0.6963344476881167,0.08524480760672978,9.856442375098439
11.444009478636017,-0.1310461987692163,0.07420172879528102,9.877550561193516
11.440963138799347,-0.6239762873380429,0.10794759433600798,9.887487045163697
11.463823975792756,-1.0502239241529472,0.10322594052968298,9.901539105719921
11.46127208036676,-1.6148692791628587,0.09626930423278565,9.841460547012396
11.483655892179709,-1.9863689592184206,0.10112122033464718,9.90258361377963
11.481553622370868,-1.520124701150529,0.11897128828157552,9.884502341414734
11.503508304877693,-0.6254066833393308,0.0969524277014114,9.894255741080253
11.501821808869995,-0.019263780056348104,0.08937620766117127,9.871364277099062
11.523376019799429,0.2777314436330161,0.0890004284997985,9.84536090102426
11.522077191304183,0.650245445203656,0.07890798048862668,9.879466019787552
11.543262962691184,1.272980457715477,0.07177214526685705,9.862775484223752
11.542318196462881,1.7378788031201413,0.06384691193185085,9.843256637657069
11.563162749923396,1.8019111048505803,0.08436023879856953,9.851117159739479
11.562546587069598,1.653790188825939,0.05321585632708284,9.856656732152459
11.583077232911519,1.1009063455043737,0.08278819796979242,9.843225256219446
11.582767428713105,0.2266571327996086,0.07328996637225545,9.883821030139304
11.60300049337266,-0.4221173833867791,0.09166176550247966,9.878694681221715
11.60297387214323,-0.881704151685551,0.11827821512248324,9.898979294917469
11.622933353011739,-1.3788533357461423,0.09764930891339119,9.885269961952046
11.62317914477178,-1.8367141517233159,0.10563378421832202,9.875758934146058
11.642886687502433,-1.7647495799712112,0.11195521567869599,9.9000438158599
11.643367678754391,-1.1115873331052522,0.12681384967889392,9.87072849922082
11.662837452473196,-0.3490204823255724,0.08870509939291524,9.882035430279766
11.663555313645334,0.1237944087761171,0.07684798910001993,9.849927083170924
11.682801705205103,0.415151339011214,0.08333499843019097,9.867727591771468
11.683725027557061,0.9072484123567159,0.0841962465704208,9.861013275220616
11.702759854364832,1.4943994916027468,0.07826217315962379,9.861194406141173
11.703891271913482,1.7664605367414143,0.07336016410518037,9.850275439798958
11.72273093085654,1.7595862234555046,0.06741701853967658,9.861104322793695
11.724051024710878,1.4922587005440808,0.0556110259201858,9.849951005074875
11.742707413550256,0.7573655214547804,0.08867336017396492,9.833489422437752
11.744208650653896,-0.11672879687307232,0.08209686927133868,9.852241017745976
11.762692882630416,-0.5719694539990556,0.10343165329528467,9.883832968531275
11.764358502727529,-1.065405647571586,0.10602638988421495,9.888537067083924
11.782679957523337,-1.6308123012805926,0.08530879280393736,9.881860988252294
11.78449769813163,-1.9050033827516106,0.11268058231466486,9.902057644945295
11.802666713942305,-1.5375670234869914,0.12223579281095884,9.903680098800917
11.804630441554444,-0.7334246268061066,0.087370133884581,9.868909421508617
11.822653766238066,-0.11810178910990247,0.08802648621532529,9.865014625453302
11.824762792654193,0.21020985826689031,0.07584496091717703,9.863526723348038
11.842654238436312,0.588438461047967,0.082424115505343,9.862787195024838
11.844893656220966,1.1902191035754728,0.07931059307220735,9.867817182205398
11.862663912773455,1.6705334890992214,0.07350347778389608,9.85357459587677
11.865027827499812,1.7526610192731136,0.07239779002858374,9.847671798314572
11.882672977573547,1.6894245138543038,0.05976357048577012,9.836802959981773
11.885151772051527,1.262105207405312,0.07477857049038146,9.846913646763344
11.902684915168932,0.36763266664675803,0.08600275036490339,9.869183933936302
11.905272508984577,-0.32539960806790214,0.09719358449248305,9.879953123667981
11.922701222556427,-0.7801378314683708,0.11420899546297454,9.884458177625566
11.925395804750398,-1.3002674289373952,0.08968241716403606,9.866444195237227
11.942723618852042,-1.770301438590552,0.10210552302056504,9.874675901189994
11.94551237526173,-1.833032764307303,0.12795384232732715,9.885917933311557
11.962744378226727,-1.2253391894614019,0.11094184873243342,9.882317615075872
11.96562710442628,-0.4629382825307813,0.09187771532619866,9.877997949996871
11.982771862130162,0.028122143676383073,0.08137116613803594,9.86448159234972
11.985731376653112,0.37313891053776443,0.07482107137062073,9.857111141380864
12.002794769089672,0.8518109133222831,0.08319914872476684,9.855352723779966
12.005841582967351,1.4424227927835551,0.06271024362984773,9.865573100102521
12.022825091731232,1.7818550660980559,0.07599060639681147,9.857551693155356
12.025946152402598,1.7301613623991314,0.06496648895179931,9.857556648945561
12.042854281517567,1.5439827332329545,0.06793516719917814,9.855167343906206
12.046047200545138,0.8961677265744925,0.09071782218087265,9.845623616035825
12.06288921728966,0.004388079872508577,0.07839578895750351,9.86432559969403
12.066148215331134,-0.5257732907585966,0.11134630552835754,9.879301837876188
12.082928405577448,-0.9560456644804388,0.11525018887090956,9.886802656410556
12.086247615399264,-1.5174923596986964,0.0993436326772653,9.868389732851156
12.102961609045412,-1.8850861986452152,0.10575685947863453,9.899196731449754
12.106339833909233,-1.6162577764241657,0.11708462573887714,9.885409804212086
12.122999501358645,-0.8903002439897207,0.10351239368560379,9.8824481591262
12.12643668419633,-0.23869916412066608,0.0915918212069715,9.861299755987593
12.143041822775427,0.17960480101706677,0.08297105868204625,9.849275141603403
12.146527704163455,0.5539926730248631,0.07923509145126342,9.863728379924547
12.163086329607658,1.1158892951653496,0.08929142734259406,9.873432599643271
12.166619276524662,1.6474142243814351,0.05479499348697198,9.860221989005144
12.183136989798848,1.7456340467346003,0.07765876469966397,9.856726800397405
12.186707557543382,1.6701866662564009,0.0742718153325467,9.88286006649594
12.203179259255066,1.3546806104142803,0.0818229700412257,9.836902031745169
12.206791590999511,0.504760386629328,0.07796676008397486,9.856492154892951
12.223222876696768,-0.29543114572511037,0.0845849367269286,9.877536510984312
12.226874812329413,-0.7059928710679119,0.11106185620754268,9.906949283657307
12.243266341461425,-1.18661443243445,0.10994601838308556,9.878893264999453
12.246950477213687,-1.7586277608774052,0.09779968076386325,9.87381615845582
12.263317118907546,-1.8292335325613958,0.10708563683511728,9.90253260015877
12.267032707898645,-1.3002721844788327,0.10716599209805573,9.883153707247672
12.283373676651632,-0.5796199812395642,0.09390466318537045,9.884632190741367
12.287116422187987,-0.02810215054046338,0.08619979869614909,9.852380731320398
12.303428571658603,0.2919285748694771,0.07292531698217965,9.870112260179903
12.30719574701731,0.7614065809847915,0.07806168066425255,9.8542064988234
12.323485189293473,1.3913135994276247,0.06191850006335013,9.860644518626367
12.327273426434234,1.738459624688797,0.06584872452731973,9.849205443851899
12.343545074758321,1.6855354453972837,0.06711218247611876,9.848938056645116
12.34735187170988,1.5663874449874244,0.06467050274562193,9.873034099328175
12.363605608674748,1.0639695099416506,0.08582500182158301,9.851308560776532
12.367430024590535,0.1305584735504708,0.06459670918152816,9.85614956300507
12.383669809019336,-0.4422743105821022,0.09709996881345957,9.876092005090923
12.387508031486412,-0.8757234942064057,0.1189466442629258,9.901085181004577
12.403739836026931,-1.437285185852289,0.10896927439206117,9.880794383266199
12.407582719583035,-1.8493156356925906,0.1173200936183793,9.881000081075317
12.4238019952716,-1.7039970955767225,0.1156330209503585,9.89360614531541
12.427649856970794,-1.0131363917247942,0.104679838581806,9.881358940267003
12.443863825661266,-0.32692539042741736,0.09257117546295669,9.868841663851097
12.44771682600397,0.1502937886433039,0.09183233167748431,9.83918633947553
12.46392188721039,0.45500408015833205,0.08851816373476117,9.863541288401779
12.467777314318688,1.0234682336589531,0.0878852535317347,9.858086757136295
12.483992972767803,1.580517104408963,0.0774980652586147,9.867482355447061
12.48785526278261,1.7471478406119791,0.0670877086538599,9.852638899074758
12.504067658495137,1.67777140617979,0.05226213023351032,9.867104625892026
12.507921146908286,1.4437439024790544,0.061274952223425265,9.863262227556406
12.52414752662819,0.6569511445828449,0.08618409849570528,9.855518765661794
12.527993319524642,-0.15209983878216465,0.07898320887655833,9.870157931892514
12.544221753533257,-0.6514404600892253,0.12127986418028223,9.881529697353876
12.548049855917931,-1.0974836886191923,0.10785674984397704,9.88203425277604
12.564290452994621,-1.6114914142827306,0.10510971422007592,9.872097026791309
12.568108561843516,-1.8840098507222096,0.12004106307143486,9.895446207534377
12.584355300676775,-1.455556840776211,0.11543610704820219,9.895560809075075
12.588162438021433,-0.7091178331220634,0.09711365844794094,9.859844672148647
12.604426202244467,-0.061059498950304956,0.08012090861479439,9.855761764764843
12.608215244859746,0.2790227411837746,0.08772563171042223,9.847381087786022
12.624507395742562,0.6614343477374561,0.07452592650579022,9.87462839629901
12.628271325665368,1.2292249674619775,0.07465389895792127,9.87086368621116
12.644583116081217,1.6784623662179325,0.06678072559159907,9.866707646970896
12.648328388895598,1.7338573506574062,0.06502442896939366,9.84915295882446
12.664670514204436,1.6299573748660956,0.05489804019108365,9.866147087066908
12.66838430364829,1.1831237292775256,0.07228834118902293,9.84660768690605
12.68474844069161,0.2767917013842643,0.07698602331423993,9.846795255915925
12.688440303737964,-0.41602926775908944,0.09908833347495248,9.87795439140395
12.704841489139676,-0.8162231946837701,0.10347190785681687,9.891859092788085
12.708489851315633,-1.3340813588643887,0.10207207061851475,9.88163305519048
12.724919995049161,-1.8025363605632827,0.10019260617907455,9.88137603901493
12.728534884768793,-1.7533500166848934,0.1145616463019767,9.89208689047909
12.745005974771146,-1.1120058784715412,0.11620678674038282,9.884356301265537
12.748578258828237,-0.40375708298341073,0.08688882460274051,9.875696278223062
12.765088346713368,0.07661856750371383,0.08889729364890711,9.852166548346244
12.768619787117977,0.4050944548658562,0.07306910383748164,9.863497632738957
12.785186334327776,0.8965248878565867,0.09265960458264681,9.87173297485387
12.788672759106102,1.4793899008507834,0.06698914356858089,9.87060444781091
12.805280138709529,1.7180161536257625,0.06770705907617365,9.85278941521937
12.808711208695101,1.6788298839697229,0.06604534698314865,9.874433232820893
12.82537123355591,1.5208785983891961,0.061893073313502994,9.847438900429996
12.828755440044873,0.8342362137624205,0.08636719130432949,9.85095937518331
12.845468017269587,-0.08025856957839902,0.07637008391539023,9.87268103688004
12.848787380043216,-0.5520903450611044,0.10430991834973663,9.888969060448575
12.86556448750396,-1.0151203105653266,0.11484462141218722,9.885136505468958
12.868823395641163,-1.5846927037993788,0.0978798466096717,9.874097364807472
12.885662962188793,-1.8687706699731534,0.11368789288582258,9.89231224660251
12.888850126066698,-1.525545729107277,0.11965361224702539,9.895960491271332
12.905756140531984,-0.8339942777312906,0.11792832417916338,9.886341659103994
12.908877479859347,-0.16301940663468456,0.07467042985719047,9.859018651841478
12.925860996766803,0.23508507273639395,0.08843748130990582,9.867448722925902
12.928906195810436,0.5808750365907653,0.08658091425439872,9.857180539178938
12.945968101206226,1.1432259998170182,0.0727102299162184,9.860937005801377
12.948932230554862,1.630225088255887,0.06397247813067578,9.859570763488836
12.966081589267795,1.745619564389489,0.07838265613408542,9.866672865570019
12.968962564741014,1.6551593281664325,0.04910455243243223,9.857357859267793
12.986195312268281,1.2967624003789162,0.06836259025341447,9.844378336117845
12.98898337025542,0.40166140984429644,0.09125027578404384,9.8625506248835
13.006310413308917,-0.3304346166719305,0.08633398269596758,9.865864727989097
13.009001496313978,-0.7447518603906031,0.11980432808696796,9.889709048122736
13.026428961028879,-1.2551885009893766,0.10736462798553587,9.891382430317616
13.029017467685845,-1.734869877243777,0.11202623672323078,9.882879825911317
13.046550027193256,-1.8166542435252762,0.11437270024893278,9.901168318493117
13.049033429813058,-1.2555025195822578,0.10754285231388157,9.892124244492637
13.066681101767577,-0.5175429967554716,0.08350977041463215,9.871220413603838
13.06904322249769,0.06226200332090599,0.09057434201051029,9.862517902338318
13.086808038860342,0.3658097415772184,0.08688974693155448,9.873986935384028
13.0890466363465,0.8099419864908438,0.0783948979724724,9.858986428704085
13.106939672371102,1.3844588235445576,0.08527948511078683,9.863661841898727
13.109043836736664,1.6975385029591217,0.07561433379118505,9.849839184042741
13.12707429073173,1.672408095089501,0.07940062867834893,9.849694631029518
13.129046680793795,1.5844622583336536,0.055231810274817814,9.846091261175177
13.147215665885948,1.0099868493047268,0.07271561541717662,9.829691732683804
13.149038522921911,0.06088566352137938,0.07487857457974083,9.877528105416248
13.167360207005247,-0.5311206735680783,0.11744029399088654,9.880049224853577
13.169025674614645,-0.9548458523911164,0.11145515856587361,9.893333825780685
13.187504064585621,-1.488757502808233,0.10745690937515712,9.880790383772036
13.189002382222164,-1.8251702654699384,0.10782626479010445,9.892715958703343
13.207660724881435,-1.615479805212111,0.12158843704664521,9.897145517044653
13.20898518279398,-0.9346201161085915,0.10923907046464378,9.884722373335903
13.227829055126865,-0.2432353870245393,0.08611004471742466,9.863397969899047
13.228958999978826,0.18101319600658156,0.08005681782834315,9.842985985643807
13.247999552848936,0.5210916680140171,0.09199027962386036,9.861954157372018
13.248929685382917,1.0465413578211342,0.07709389559636676,9.880776938031937
13.268170878718633,1.5670170600364384,0.05980812391457282,9.857769854775471
13.268880578912055,1.7204582301062454,0.06727595839869023,9.8476666032024
13.288343762203604,1.6642044227890294,0.047856584372165806,9.864304897532564
13.288828438597747,1.4291675483723685,0.0670308691743834,9.853982925501375
13.308531658792685,0.5782498898572614,0.08002870528530763,9.850262018591147
13.30876931137252,-0.24861829214372516,0.08174950086143302,9.880584983425711
13.328730147160659,-0.6928992077869673,0.11663143260636442,9.8967410682767
13.328708458912155,-1.1541254507406247,0.11080905901534656,9.885819691261542
13.348943689931298,-1.6936345388783989,0.10775708271431587,9.872688851328297
13.348634149783157,-1.8378051867675462,0.10681261418944676,9.888246504996026
13.369162955005201,-1.3418550021791387,0.12637801797099546,9.881849772261155
13.368544282584223,-0.6345271022389575,0.08960355745197193,9.86938893078841
13.3893888059816,-0.02818087382507559,0.09063129953123386,9.868411595445199
13.388443773240951,0.33285022192379743,0.07886155383425632,9.868412625776589
13.409630832402627,0.702752930080248,0.08248794698160634,9.860452567579307
13.408329580318433,1.280851850181826,0.0758360205557581,9.85389893315695
13.42988033045137,1.6865316104999433,0.07341659007737636,9.859629727839188
13.42819730950933,1.7094790531976332,0.06863692346050967,9.862385218284674
13.450147171020538,1.6173637215613792,0.0516027042439966,9.881888047815531
13.44804220244817,1.0961358813424735,0.0794196745986594,9.853731541237465
13.470427429881633,0.0715871250678608,0.06921242792028302,9.873666085281723
13.467883547327759,-0.5890433254760475,0.09493825004661668,9.869325927540915
13.490750208308839,-0.9570611971649327,0.11252584010227784,9.903555864986835
13.487706087784149,-1.4233093572311888,0.09843423492445569,9.880178950769961
13.51108878522411,-1.6676298430863852,0.10983949165368649,9.896283632040296
13.50749966506148,-1.277101400596349,0.11508146889084284,9.874857656870716
13.531445522266866,-0.6532339558850117,0.10437146686094666,9.878791414397599
13.527258833413681,-0.04952365380593673,0.08139880381516773,9.859133190242876
13.551822462627607,0.2854373019552483,0.07923575118137484,9.857338058173438
13.546985277360601,0.505809654508122,0.07006938934833555,9.877517239896086
13.57224720458559,0.8028856234030449,0.08577649193763973,9.858020581742883
13.566685546338434,1.0432996634693987,0.07981072624810157,9.869973343212548
13.592708526173215,1.1018324997855717,0.07948147046639653,9.860852095235376
13.586338858516466,0.9483483296203251,0.07173118699342383,9.870087472807942
13.613217122267907,0.7770166554176672,0.07743518882767515,9.859067580910429
13.605938670969945,0.3907226441570203,0.08659635829383536,9.867291208150423
13.633767193780981,-0.17107985024976488,0.07352541119736669,9.86443579384773
13.625474794245514,-0.48823267592282293,0.11393623657028024,9.870782693561763
13.654397048862949,-0.7346625663561579,0.10733954001499672,9.873395617779728
13.644941594941658,-0.8701538922491406,0.10015144051736173,9.88992904012345
13.67509775022322,-0.5256221812186757,0.10883885213577589,9.890804419770067
13.664330133361522,-0.24171360900378555,0.09842102364784161,9.861639925972147
13.695910043207714,-0.06853114330197481,0.08252371803651534,9.870340937977758
13.683616017603196,0.16260288537026213,0.08093098328459727,9.872140790331054
13.716837138335807,0.3099041201300562,0.08180014502013927,9.86755453804659
13.702767674799324,0.3907927012882622,0.08145469644845245,9.863356151971082
13.737912073903098,0.48416940024564875,0.08407016920459112,9.85843740690348
13.721737621658917,0.34165438393007186,0.0907097080950279,9.854706128347116
13.759165370603482,0.15270841931210144,0.08300463223926578,9.882801772511227
13.740479962068681,0.11621296133783046,0.0922762323279535,9.873294618242914
13.780672775564645,0.0740325604035874,0.09552018313628272,9.868653160694308
13.758930106444062,-0.0077233891018612414,0.08331319102027622,9.875265408652691
13.802528382685237,-0.0012905804729574255,0.09579265594804352,9.875124703635647
13.776987752074941,0.038999264608356454,0.09398848744750964,9.866437388895134
13.824876196154618,0.04185038558433987,0.0781607921596206,9.88015872258581
