Time (s),Acceleration x (m/s^2),Acceleration y (m/s^2),Acceleration z (m/s^2)
15.339856407249377,0.0554657858432808,0.08850122807982573,9.874206356767996
9.51346297229691,0.07077993422264835,0.08046324686409562,9.870902163065404
11.120803559494258,0.056705441553998794,0.09076883182786362,9.872281420045397
10.18379955150905,0.07372243742505537,0.07285414713494613,9.870200809060737
10.868077456979986,0.05694287272783546,0.08675994668950554,9.871016190770304
10.354345729175547,0.07137749393864616,0.08680620216489847,9.874525140497282
10.792594625784435,0.0665280440595198,0.09862343049479379,9.868923324945643
10.440385259976734,0.06115995246574018,0.08562636115287972,9.866407145291543
10.764252355343269,0.058664206658978264,0.08863848111230452,9.87740217346831
10.497372818223841,0.07759439395617705,0.09481032963844976,9.876573883618049
10.755106803256732,0.06413478280779718,0.08846210258581887,9.87969871802338
10.541001926520067,0.07571292156576934,0.08685870363440981,9.87367775316757
10.755634543015299,0.0593795307270584,0.09172946171426073,9.876609322206921
10.577398666937333,0.06591224677613917,0.09556871795967481,9.878769059845714
10.761715525544545,0.06328270796817,0.0817136152801597,9.87148933218274
10.609448808142428,0.07713940936327914,0.08096145022887917,9.86154901030535
10.771272456558986,0.07411701655438778,0.08261557768423067,9.870426218585347
10.638673693164742,0.07599340397460018,0.0826552077866799,9.862241449975365
10.783160745051344,0.05637921524387206,0.09749981983688034,9.86758557202559
10.665974342299998,0.06136650897397758,0.08259700160483131,9.86579246320295
10.796665319351671,0.05356527172959841,0.08401771231067753,9.858916042208907
10.691873316362315,0.06589422948816781,0.08376493075788441,9.86550945197441
10.811351424629105,0.06130505320232655,0.067926298183492,9.872982538265768
10.716754434548491,0.07492146441501712,0.08600698377431595,9.86634086698006
10.826916739284625,0.05957985468817011,0.08002811463789139,9.873620692439923
10.740849120035557,0.06113374607073085,0.09065523652832641,9.869953273958247
10.843172942255999,0.05142880173954808,0.08801508733421669,9.87741742792751
10.764352697140241,0.07143220307743538,0.0913817365257891,9.872295388587109
10.859976460320672,0.06362897666344179,0.08648304429572719,9.87671191377792
10.787380656688196,0.07251598974522566,0.08145756760116515,9.870786559793322
10.877208385686249,0.06555707796930597,0.08467445271702384,9.878950232570839
10.810021673589773,0.0670793616653299,0.09294767635237625,9.859609125861766
10.894795051579148,0.06101248014415942,0.08457527007937533,9.86928163109497
10.832347499732299,0.06559941712435795,0.081916922050472,9.868198011412717
10.912663738674652,0.05984062947962077,0.0873103098585568,9.873951223838848
10.854406235950739,0.10021482377534179,0.08508222420605543,9.875244817358972
10.930768920262036,0.20961379756368587,0.08067421238286421,9.876902149349592
10.876236872638641,0.33708142045088796,0.09737531033527727,9.872590557054455
10.949069006732232,0.35669707374308746,0.08190324311839323,9.874336947633246
10.897879354282724,0.27094414997450317,0.0829437561583588,9.869787944758276
10.967539660325288,0.13931001683331087,0.07831123904530098,9.883428885421424
10.919366034760307,0.021959055664915662,0.08810585558981798,9.882383846911361
10.98617858951743,0.0037873639892947245,0.08928370419390115,9.87476509314805
10.940735181620422,0.05336965228332411,0.0980172005805434,9.8744313198533
11.004933992454669,0.06442472071344015,0.08535001406163331,9.86451331522344
10.961971584519878,0.026067863965733698,0.08627042000029068,9.884393754155877
11.023804302880597,-0.059782873958402455,0.0876757040881384,9.860788963426335
10.983102776926494,-0.12751928266510093,0.08504130735930812,9.872573964786419
11.042749865894978,-0.13147100886549729,0.08669745478843122,9.858346494932006
11.004130442162321,-0.1450355397887305,0.10146067997339105,9.8800383124668
11.061803596231414,-0.11002339257470221,0.08821868598806859,9.867372277460186
11.025102708865676,-0.07484833748389891,0.09379610536701512,9.883957713851212
11.080922362556649,-0.16187012163493436,0.0810501764561798,9.858791323412552
11.045991218675386,-0.2513580706758122,0.08334333554643626,9.874098375258487
11.10011228993196,-0.2722493367354409,0.09395408826178171,9.876613738165933
11.066823010434575,-0.21747285521323106,0.09373102779047046,9.887847605024882
11.119358874260389,-0.13413433993233903,0.08728090321641752,9.864671683508917
11.087585906164517,-0.03709840710718644,0.08735827542400962,9.870022332792702
11.138658251818507,-0.03670163288075857,0.08620898296550268,9.877676900614631
11.10830738546095,-0.05240353578745287,0.08695913444408877,9.871582089094263
11.158017787822528,-0.0912336681267874,0.09265296025213661,9.881245517672962
11.128985718920552,-0.09937574485515809,0.0908777237298125,9.88146005613126
11.177404728487017,-0.020225687304071715,0.09258799768887926,9.866432082709935
11.149614031744028,0.06071819508997116,0.08059861954852725,9.859920493660228
11.19684192531899,0.11642666555170274,0.08692207633387454,9.875489925062414
11.170213690978398,0.1535339539445684,0.08542814130957586,9.87306294595119
11.216303340168082,0.14433428268602583,0.07723232812786734,9.882849907993691
11.190764695683768,0.17401374513090978,0.074076514087447,9.876449442716783
11.235804024995153,0.24840633838831402,0.08348908928423876,9.876827273808301
11.211294104629282,0.3209123338490777,0.09068755696362636,9.875351899001192
11.25533292005778,0.37343431697438567,0.08701271439680235,9.878629038861439
11.231788563015169,0.41512232120055204,0.08127914939304862,9.866560962415337
11.274891245837882,0.44418575053481946,0.0795041674193666,9.881886198762214
11.252265829186921,0.5130979588992277,0.0900287333405262,9.879446147567462
11.294479231055327,0.5311412673891049,0.09789139654511342,9.874043268564952
11.272719746421904,0.5834111805394793,0.0721563463865867,9.865372467584152
11.314087959784262,0.6330873905004518,0.07876616262598163,9.857765086891071
11.293147208417917,0.5959875065663215,0.07728126916071397,9.865814559153891
11.333716387315308,0.6125060222344985,0.08263074105501232,9.881219739853801
11.313551850925132,0.49993837710830163,0.0825139499873067,9.870776729953903
11.353364281388085,0.3250901288968185,0.08078161251470901,9.881176108416211
11.333939827983405,0.24885387160143715,0.08849965334801155,9.88258767961346
11.373031686030842,0.2519940404267853,0.07996693914871995,9.883013365636003
11.354312505347833,0.26826960585381376,0.06789235197379423,9.861604347877412
11.392726227004538,0.2480826877095301,0.09016785348143934,9.865859477260946
11.374680691963375,0.19416200582574691,0.0842745938332289,9.876203383988257
11.412435307872359,0.11202308634583573,0.09096083563438855,9.884971286485923
11.395020092322513,0.02918060236194955,0.07655669205632783,9.853387467785334
11.43215041469671,-0.050535634130625805,0.09529081825605824,9.86733561832094
11.415344346532242,-0.13607742113806368,0.09300075662166103,9.885764960886775
11.451871547287515,-0.17025277381522597,0.08358610144429957,9.874777493671306
11.435642093110935,-0.217797060543035,0.09513112209231343,9.872764892091892
11.471603229254443,-0.30236179446646816,0.09160201835428988,9.871442350131137
11.455939336167622,-0.37306322363951255,0.0957942084901365,9.877797515766524
11.4913643193505,-0.4414607518085768,0.08874323158897385,9.87887653119037
11.476227492384947,-0.501210746659215,0.10109443373075436,9.873737173911914
11.511127712043209,-0.6482414216746933,0.11445393148469057,9.864115293527357
11.496503141551212,-0.8462730507433669,0.09961605531405257,9.885324835005388
11.530908238068232,-0.660382088295654,0.10349308142488589,9.885862766905277
11.516772823418522,-0.5096143077825813,0.09690734265960543,9.881017902398158
11.550689422947064,-0.4679388010149414,0.08654111484168155,9.862169731528217
11.537026510345797,-0.4257618220178751,0.09568788924891179,9.876327389446232
11.570486001598125,-0.40838841646220847,0.09241979920538021,9.864411348376757
11.557272675837076,-0.45774575066435214,0.07915930454571912,9.873061681116498
11.590288894787317,-0.4864316698901079,0.08421630597694955,9.89966513757813
11.577509764206237,-0.46362528895561256,0.09282298914033947,9.877048099257008
11.610105682669133,-0.3954101986776339,0.09553782265910211,9.875754633064092
11.597746595860372,-0.3043409914509225,0.09184658707411662,9.876411066214567
11.629930454845343,-0.2763445434799156,0.08752408166123757,9.874475638244197
11.617972270628464,-0.16487388905014377,0.09926687753547958,9.889203368172268
11.649757732522538,-0.07156373606691194,0.08286774280275583,9.878952812527526
11.638181689007407,-0.019417673806666785,0.09496416289520966,9.870204383546032
11.669586605550164,0.11295876546032403,0.07627317965361324,9.877575563643768
11.658385758640483,0.2583200791713936,0.07086765956206323,9.859474076297424
11.689430679835748,0.3462005797452852,0.08229999191103814,9.87020302122452
11.678586035637514,0.4142432675508109,0.08248288968890434,9.867725457406573
11.709277402018419,0.5413707719383207,0.08669217603704157,9.867706175158764
11.698781936389022,0.6799168503787909,0.08692851049183302,9.881468258150424
11.72913190981116,0.7407695168136268,0.0705719785625265,9.857223167322994
11.718968061926494,0.7837623568783336,0.08784778465683263,9.874958087673598
11.74898512206221,0.8366109517267741,0.08354193339538685,9.868767060904563
11.739150907981813,0.8726424950835883,0.06406471063047718,9.865266916079065
11.768852356588996,0.9652500811842442,0.07599155114191934,9.889531796061743
11.759333011519406,1.063637103134697,0.08045885265404942,9.873467682471295
11.78873025618259,1.1615482927303966,0.07151026695788996,9.870118060091785
11.779512924335314,1.243869286131336,0.07045709124545348,9.86357745546892
11.808615296705108,1.0299970122107651,0.07187315727942727,9.846195569402973
11.799690936126312,0.7651220999677028,0.07439502463543761,9.875186745930996
11.828496763063388,0.6556069460802736,0.07274770331479109,9.88489540923374
11.819853578494772,0.6665358019783851,0.07802619670895466,9.884057533034317
11.84838155599793,0.6860684501428276,0.07967690078807696,9.85957451003808
11.840009714072243,0.6196151573318435,0.06857129286513249,9.871542481637661
11.86826131433291,0.5071405591331564,0.09158676675528599,9.868941662877242
11.860155339600711,0.3606255538393429,0.07894048040228319,9.875402122798755
11.888155492718196,0.23284053279222872,0.07589675475073124,9.867560934116389
11.88031118317544,0.07017635426627596,0.08336895431020322,9.879567807333848
11.908048563720397,-0.011307860062754119,0.09922265109178732,9.886814367193821
11.900462219595132,-0.20968827667287007,0.08864172862512407,9.86547055601753
11.927957077618505,-0.39586411651696324,0.08376485313881334,9.876666611872738
11.920609606047018,-0.48424094249925353,0.08322598822588545,9.87784091631692
11.947858318056111,-0.5638625110972242,0.10339699868309582,9.864558970505929
11.940743845186283,-0.6587831097216253,0.09466420895524687,9.889475708561033
11.96776331069954,-0.733428760652359,0.09785972062241119,9.865927771357223
11.960877446132674,-0.8580628463034613,0.09095075654350465,9.878941260234276
11.987675078190716,-0.9754456677045648,0.0982857656798632,9.873321290268198
11.981013081061846,-0.9955168204061622,0.09527439629501187,9.876009095098885
12.007589303892562,-1.1856024064789692,0.10378706016087048,9.876838320072935
12.001143958787143,-1.1796462131101757,0.08909102454235088,9.887504794796557
12.027506972322229,-0.8893078473459336,0.10189937912911355,9.884588484157472
12.021269461074496,-0.6130995525490015,0.09230813329810521,9.882552374894649
12.047420845110162,-0.5631848757213967,0.09826652237987736,9.866353459289318
12.041393700523205,-0.6870468760465861,0.10587293454528011,9.862312047979874
12.067345651474739,-0.7201899732722964,0.09693014065626211,9.871667560107634
12.061515590246277,-0.6601166411615202,0.09397437266749156,9.871514657500239
12.087272941607873,-0.5625068621824492,0.10822791292428495,9.8884553262987
12.081642029440758,-0.48475241567731586,0.1010234345069308,9.86980617129073
12.107207883965753,-0.3480664995605749,0.08011188599381572,9.870749876134735
12.101763896682534,-0.2498556261505883,0.09936446334099024,9.885729122935107
12.127140361562912,-0.1841379692509899,0.09506098354705202,9.864684550406935
12.121878786353612,-0.08050842808856716,0.09079480889942933,9.896652575910723
12.147072126411603,0.09807921462036008,0.0950216737200739,9.868881412667884
12.141986754506004,0.18802737007367992,0.07117951242030741,9.866608073377051
12.167006091818969,0.30654717194195014,0.07836570959946852,9.870456310940497
12.162094796323581,0.4773251673335286,0.07707158318289997,9.87436852805595
12.186942635121959,0.5746537643135777,0.07208659905239334,9.875899748543125
12.182202904760041,0.7133852679068436,0.07841714001368699,9.86904288422934
12.206883304097795,0.8224713681800789,0.07742554689826271,9.866163818085914
12.202310675303767,0.8088104726776075,0.06444151522872783,9.85934086223311
12.226829803805066,0.9538914272572215,0.07370992024178157,9.880453686139177
12.222419622162848,1.0644227296181124,0.07656545678575502,9.85542949099268
12.246778223354333,1.0364078668547663,0.08314300122096364,9.873087424857857
12.242530998196129,1.083489384818088,0.08589693558167166,9.877051904462359
12.266730094492656,1.1410880873295235,0.07525669615845136,9.87007476311405
12.262630680697361,1.1781716406545002,0.0725930388668007,9.874492558090632
12.286670297472682,1.3294115146509724,0.0789991306699703,9.85525365180837
12.28271845954871,1.1588731578321991,0.07309005824649481,9.856046888600938
12.306614581723299,0.8219326164086527,0.057786636090328324,9.858465091699987
12.302810449111618,0.7214930084556787,0.0775107561157788,9.876614720479337
12.326566804165905,0.6948001469123172,0.07543483381628638,9.86929947544606
12.322909930545322,0.6152958826137488,0.06718349500319085,9.873556396811084
12.346520627422562,0.5724832284674513,0.09101951133443195,9.86243720742764
12.343004854853909,0.47490773051095764,0.0840183301744228,9.885893949319899
12.366475640890066,0.36799542478564795,0.08515847298196894,9.877165959752473
12.363092074791414,0.266233526603626,0.08518545702571857,9.873469734739745
12.386424615324062,0.1675366524592044,0.08709274282600335,9.862491767615252
12.383174647505317,0.023977070532854913,0.08367094452900412,9.859363247284733
12.406378006224585,-0.07126655089319021,0.08963229851081553,9.8810105724592
12.403260724438734,-0.21061973015965454,0.0950673148629241,9.864818838360408
12.426335094793552,-0.4049347796893819,0.0923934238162562,9.879197245440846
12.423350058312183,-0.4858939748585427,0.09545439732369732,9.868514004260494
12.446301839937961,-0.5436705709480126,0.10493365356755006,9.860874105548008
12.443437633878522,-0.6397854700235459,0.10386447564296615,9.88134221983272
12.466263355987325,-0.7407490148806148,0.0996095313940293,9.883947401706422
12.463521920980272,-0.8391441912968203,0.10472618687685788,9.89105861051079
12.486226473374144,-0.9646544458435296,0.09995333332473122,9.872183053046419
12.483603981702036,-0.9597078568939117,0.09347009555476549,9.883462980675878
12.50618837489129,-1.0728194533915865,0.1162714289175794,9.882490677806679
12.503684701835857,-1.3261419855094307,0.11081890935291316,9.894059131018915
12.526154288486593,-0.982406121331196,0.11321775731188441,9.888860591135499
12.523765290025267,-0.593831935337509,0.10552290736554455,9.88184178611895
12.546121884315049,-0.5640858406405662,0.08732065503271637,9.867199994517158
12.54384621031342,-0.7133309792802697,0.09501789488043312,9.868453586580472
12.566094109427087,-0.7045573449200263,0.09708247547314651,9.870537586930885
12.563930563060449,-0.6130015650247539,0.1079595038657852,9.88743609732492
12.586066282784063,-0.574004469125544,0.08449709451667112,9.878269251859557
12.584009476218641,-0.48966090693254116,0.09985038524045832,9.87127973394835
12.606040320504372,-0.3390403599915835,0.08679408005814014,9.86534637843844
12.604082906176448,-0.23335092857154738,0.10412934872669394,9.87366699643354
12.626003364731092,-0.17280640573631048,0.09006572905897504,9.863157740782256
12.624149867783613,-0.06269787573756092,0.09322286112438312,9.88768741336208
12.64597323351596,0.08980511730735334,0.09191888791343428,9.870432068019984
12.644221620516392,0.1669358683758865,0.07503539864212574,9.87266564068557
12.66594296176904,0.30725296296859494,0.07757647986077273,9.872784645713946
12.664295147994856,0.4912599416521565,0.09686006647615729,9.884854747601125
12.685921849034827,0.5795931547327173,0.06608525877723996,9.863143469226161
12.684368385348881,0.6901780352443337,0.0911158463256014,9.874303627222218
12.705897342447356,0.8116723927245887,0.07922432015080448,9.86768946763776
12.704439065607078,0.8931761443978421,0.0690554097098633,9.853799356543133
12.72587621528333,0.9849906128614505,0.07986854317186919,9.875867155091735
12.724513025552326,0.9791238530950499,0.06993497759974482,9.86332728635194
12.74585689973638,1.033566347804337,0.08539784874545484,9.877724122849727
12.744589465707712,1.0888926341013445,0.07811128984823386,9.864287388600582
12.765839270864213,1.1610881865059326,0.08354799123791735,9.871478472081561
12.764657460152744,1.1823182989200374,0.06017407200245855,9.870303676603635
12.785816221656043,1.2971619986636003,0.07494753213560343,9.872261438551838
12.784719145812462,1.1347785975353175,0.0709926366804626,9.858085862060491
12.805788682195484,0.8282243929911811,0.06613918511034261,9.868146482239883
12.804779784267529,0.6928794887249549,0.08580673011996713,9.882152330420842
12.825770491598085,0.7053275338051945,0.07864966069965165,9.8774152059211
12.82484822894097,0.6918596317073719,0.07665967531502202,9.85673674422636
12.84575872932333,0.6316073733805057,0.08179584598845395,9.858731724205548
12.844916908303071,0.49002593502422376,0.08149275846726067,9.879114019342211
12.865741338195537,0.3319386796193802,0.07566884213880277,9.872843689033473
12.864978330430658,0.22776256403264347,0.07492062227643786,9.89084944429408
12.885719774680915,0.16235480645270506,0.07499654398325735,9.881810056566328
12.8850388764223,-0.0005482474445610913,0.08274133094916351,9.873326051713065
12.905700720053222,-0.07486998975213402,0.09394113252553504,9.880228213836721
12.90510372156508,-0.20365008027906803,0.09385310583768514,9.87797960366308
12.92568726622517,-0.4047056012891145,0.0821149402169989,9.884800278499974
12.925165622335413,-0.49212532695873,0.0938503803174313,9.858101893337556
12.945672724509533,-0.5545858741150326,0.09298071456500936,9.864179123703241
12.945227342649924,-0.6566602583364242,0.10135680726875103,9.87308183683825
12.96565563712933,-0.7530660740222556,0.10459357376940173,9.889155068402435
12.965281746601352,-0.8241879167978473,0.09440735696949515,9.869215928414409
12.985640359176196,-0.9526453555335097,0.09953432619825989,9.883799794442751
12.985341363918854,-1.0186605577432584,0.09747828821395353,9.875673650833187
13.00563009306957,-1.147241297098342,0.11979564366529538,9.873481405998305
13.005402251291873,-1.1668265905838044,0.10324646295817581,9.891984168600285
13.025617632511462,-0.9211826064518505,0.10036840431667733,9.874787176270601
13.025460801240877,-0.6725315347423558,0.10101652188449327,9.882963288723202
13.045606818279667,-0.6290156589075384,0.0970520590880445,9.86859815849407
13.045519039694625,-0.6977851402664671,0.09713753636350195,9.873606805888024
13.065593484072563,-0.6940537556006071,0.09694593250470755,9.86243717945754
13.065574319976868,-0.6469100443659664,0.09882850760691751,9.868856670124154
13.085583172197657,-0.5738231618857833,0.11224104505389133,9.86762264885199
13.08563178477503,-0.4807897949543694,0.09502403283239813,9.87838302797662
13.105578929389607,-0.3470250144816454,0.0771109413144726,9.87334773926592
13.1056919844093,-0.23931912848997283,0.09909540499660083,9.86603305073908
13.125569922640297,-0.1579523811387472,0.09774641493399235,9.85288809651206
13.12574758215103,-0.04263789737312384,0.10349591704615901,9.86851229491322
13.145562187931718,0.13153474414424815,0.09301416609276383,9.856834790025431
13.145802662301831,0.18588876360858744,0.08311271133918338,9.87075352831503
13.165548484041524,0.3086479264755242,0.08641561293715895,9.876073534241389
13.16585308897468,0.46724531136553077,0.084126471382662,9.881869878896516
13.185543428679935,0.5752946213589656,0.07348941040470656,9.862191967300902
13.185907950025749,0.691015501359096,0.09302664269023714,9.875974299647359
13.205537576513843,0.8350046305688433,0.07901881661164648,9.866945428195011
13.205967501994387,0.8778019000779391,0.07015017345454182,9.861139453557703
13.225534907882476,0.9759112589698923,0.08879382160144215,9.867952836821008
13.226019700191786,1.02182908099606,0.07643980825626413,9.85345512001951
13.245526957744515,1.0367848780894873,0.08464109870422427,9.868053949288436
13.24607103386676,1.0853081260029536,0.08420985854906779,9.854492537527843
13.265524621239212,1.1649624522669038,0.07437063754871172,9.863021665818913
13.266123690255386,1.1912335591157333,0.07922985646884917,9.855562522377175
13.285517573066246,1.294257252567798,0.06241990951119043,9.857564693487879
13.286175240776126,1.1118771323888013,0.08119879549423512,9.856962001516806
13.305513101682482,0.7906105595689755,0.07373786336100639,9.86384616684923
13.30622647479462,0.6706142495847003,0.08128936582757272,9.875720395348097
13.325505100777878,0.6923438440246564,0.09404526579692207,9.878850521328259
13.326274117852595,0.6809879968434888,0.06902025646225635,9.868400744875494
13.345504505736722,0.6384504761637245,0.08195635813619818,9.848671639648344
13.346325081412486,0.5148692789365624,0.07142486277858924,9.87664676361881
13.365504155277977,0.38776389482588075,0.08669368782394675,9.864444767361096
13.366379479252556,0.22008788273540542,0.07196935689116721,9.877293942678886
13.38550239566512,0.13491047859459357,0.08722001641181323,9.864729628982156
13.386424844311096,-0.01320465020796511,0.09481094425103304,9.864558669511098
13.405495851756191,-0.07370533678439314,0.0991564452491353,9.881422503477488
13.406473105225741,-0.25256133631648825,0.09226680203460096,9.866116444596118
13.42549453682308,-0.3986650274838903,0.09736046676187345,9.904504622176825
13.426522367727102,-0.48217340360996447,0.09158447926792956,9.87750667765932
13.445492586416641,-0.5458283887844516,0.09476676517854866,9.886331496480793
13.446569760767972,-0.6639749980353553,0.09809053103653904,9.874915330343825
13.465491474038185,-0.7763979449541056,0.10469971639585306,9.865641505428972
13.466617553884813,-0.8564516552793459,0.10518607568671284,9.86620880207171
13.485487394129423,-0.9683953473549372,0.10300358134032017,9.88194401539932
13.486659492211398,-0.9863912303020868,0.10400677924614025,9.87755564332956
13.505487727975158,-1.1458045195776023,0.10797839510021355,9.877431635618327
13.506711069670335,-1.2015686205039133,0.10840259168388068,9.877849345240323
13.525489735763735,-0.8823485771378149,0.10884528477019594,9.865549789487133
13.526757559771324,-0.6503035625784983,0.10641305176449373,9.872174989147819
13.545492637982832,-0.6227097916142285,0.08841968669006474,9.860831554080736
13.546809755426578,-0.7021172614269391,0.09800625222413188,9.866026242988271
13.565496279341726,-0.6931948032219053,0.0961928978422119,9.879098599400246
13.56685296767606,-0.6483236968086146,0.0937578244002984,9.884062446872447
13.585499946162805,-0.5758372264544234,0.10339864483409837,9.893351368602278
13.586902227550484,-0.467776063245821,0.09845103811331983,9.869563347124268
13.605499765674754,-0.3502362898698568,0.08962458707862056,9.872183802966383
13.606943248735048,-0.24052622766806303,0.09782756772668863,9.874183330905408
13.625497032255586,-0.17606812552754364,0.08192505477619534,9.870779159290384
13.626990610615499,-0.05267370973139661,0.0962402695922812,9.875109749941899
13.64550705920067,0.13885896560365021,0.09285532174440843,9.872307869637517
13.647038020482373,0.2376870266243884,0.08119223817884992,9.879157422243297
13.665508523624053,0.32425928013683847,0.08151265550126438,9.866341080362854
13.667080784971219,0.4736641920790179,0.08692870616188048,9.873526611717663
13.685511244495935,0.5731129209078237,0.072995098358194,9.861850750711413
13.687124107184514,0.7002755128946926,0.0806236686133871,9.877195875011704
13.705507865788016,0.8595871717122173,0.07540731913955966,9.871817360930331
13.70716239465098,0.9038150059723499,0.07669480087392619,9.852966580057895
13.725511458997232,1.0028827750554543,0.07963157346610066,9.860706913638333
13.727205428231786,1.0193232648825858,0.07259029758641203,9.86184252162053
13.745516235184885,1.0360599627462264,0.08782091875868793,9.859958227362675
13.747250054267019,1.1234835617530532,0.08937995324521639,9.862128665234312
13.76552337825865,1.1526783125058055,0.06565608320065987,9.863521406521029
13.767299490500877,1.194221049027013,0.08229579868530423,9.876679765929316
13.785530119322152,1.2867639228725034,0.06278705229394432,9.860056279680885
13.787341645180206,1.0739513218536505,0.07042506794308927,9.845622767711616
13.80553438572777,0.7710703469013291,0.06533706554247094,9.859984387907165
13.807378525000095,0.6821302440497086,0.08976924007127572,9.868247134590874
13.825530491665996,0.7086046152053221,0.08198585276314709,9.883557474836246
13.827412416987034,0.6240328361188244,0.0679804890356967,9.86453693575169
13.845533456159833,0.599827343752124,0.08608290245115147,9.856408460760862
13.847454148880086,0.5351078443346288,0.07448889755910869,9.8704694545988
13.86553863562104,0.4414330933926802,0.08278059665826537,9.87886732620712
13.86749500255508,0.24261665137289515,0.08863455959433417,9.870229804038459
13.885546169974619,0.11534835678284125,0.09371378108565614,9.86016713905127
13.887540207569954,-0.03666708952477656,0.0833415679206114,9.868900810563565
13.905553539834496,-0.10812096074564052,0.09898321255649435,9.882523658524384
13.907580699465516,-0.2990993940494507,0.0947380286661916,9.875211177213076
13.925561171079925,-0.4009851288547007,0.095063619891939,9.872273185432883
13.927624826105983,-0.4525705303192097,0.09262668215023041,9.866174832724967
13.945567239668687,-0.5531752803580248,0.10465001243271686,9.888389821494936
13.947661998675285,-0.6979395518430527,0.08858955656000204,9.871146485843955
13.965575323695525,-0.7688189422424117,0.1031769442201698,9.886402588424517
13.967703240570527,-0.8678542651417175,0.1106872746919257,9.867503444195455
13.985580723637266,-0.979283176312309,0.10719738580605297,9.873890573262463
13.987739570894023,-0.9689381132999974,0.11014005987742391,9.871790797974784
14.00558651055483,-1.1674305291986524,0.09635353171883594,9.88102364355941
14.007778929486772,-1.2274788555228495,0.08555123917989767,9.891345001854067
14.025599672257433,-0.8801755924731037,0.10106493313187863,9.895743128165686
14.027825992927589,-0.6426068435155633,0.10076041941112328,9.874619649585403
14.045608551323935,-0.6263534452574869,0.09158598376773051,9.856757578323304
14.047864813308056,-0.6874811256888079,0.10819678449456017,9.866233135467944
14.065616572260073,-0.7044797618341309,0.0999746966745025,9.868681281778606
14.067902489084235,-0.6456983802780546,0.10122499078547062,9.88699490375159
14.085615921609772,-0.5537620660569658,0.09534090836070704,9.887854376836474
14.087934331032786,-0.4427797504361404,0.0875189288337054,9.867799895271881
14.105627561227793,-0.33395803288249887,0.07290362555848387,9.887532372014622
14.107978293495291,-0.3668808389035706,0.11021338973575759,9.880370803843702
14.125642000108265,-0.26566330785834164,0.08762469911976864,9.88014813248447
14.128020343250604,0.00214467403082064,0.10781192079698382,9.884945533762687
14.14565978218518,0.18419366721056796,0.0926444759803764,9.861475926604777
14.148066459452357,0.30548114141916505,0.08015870473188755,9.87394680306412
14.165671334408495,0.4149164858203888,0.09370919231324726,9.865677398302182
14.168102095102228,0.5146147931980091,0.08121067619482347,9.880400196080283
14.18567537284385,0.6152005482149874,0.0827403049786877,9.857342077273493
14.188136253333987,0.7641253586621146,0.09119593941472917,9.872995568304702
14.205677076859544,0.8709331362922859,0.06581680192318923,9.872496484006364
14.208163412865106,0.9235588751943087,0.07668887052750008,9.86179969319167
14.225680036935076,0.96700890753872,0.07545116675705917,9.860760983910646
14.228199052697933,0.9912825988257048,0.0756376153093195,9.875924607867553
14.245692593732604,1.0516289108688297,0.0768922450057778,9.868781124987139
14.2482363808994,1.1363845423251875,0.07658193976705982,9.877073642954056
14.265701996984681,1.1734973274771363,0.08423338206550346,9.870152888738357
14.26827290897435,1.2481442374572262,0.07722397195887863,9.873511112045364
14.285712884594924,1.3005537791094575,0.06913439578807613,9.875968503399712
14.288313657510786,1.0337831075809725,0.07727943008252057,9.855917271034578
14.305727183256922,0.7382451449977429,0.07473692870634008,9.863160963322992
14.30834991523083,0.692053162114948,0.09464956796519713,9.868513447504945
14.32573785724318,0.7058888822065154,0.0847453894775016,9.886056230923895
14.328385807727829,0.6483901737954835,0.0809108676441373,9.848279852696422
14.345750142237298,0.5824381889546366,0.09195950474088202,9.871114654420888
14.348423769389408,0.46832556509636664,0.07803899238022617,9.882585488839215
14.365763492139243,0.3148859173807682,0.08345098516763322,9.886781014448317
14.368462136256252,0.16904228206575264,0.0877197610152288,9.869312659443345
14.38577888455802,0.11553555906079567,0.08846481821687582,9.862165487032707
14.388506225042011,-0.014695331285644847,0.08978154150250534,9.881788507062796
14.405792064305835,-0.13735050730208612,0.10897379733092123,9.877436591050323
14.408532992146693,-0.30764619547475847,0.07930967330275725,9.876639893813143
14.425797148373183,-0.4134496498581142,0.09417398686822583,9.90371735098632
14.42857062988691,-0.4901298332125577,0.08901555372225445,9.879590847522506
14.44580641753738,-0.5843009682533571,0.10950865520088894,9.890968713650741
14.448598909635272,-0.7096271314065649,0.09822285589595142,9.869535655403904
14.46581841698506,-0.7726799594741349,0.10264103247479564,9.884460535667166
14.468635773542852,-0.9140760162843331,0.11215821698767028,9.854813406261458
14.485833699264617,-0.980559623445457,0.10462965486400945,9.880837746059713
14.488670976817577,-0.9997994770064044,0.11593783956506247,9.868530337740339
14.505847324014963,-1.2129236396475607,0.10753458664606128,9.872020507948767
14.508711197431277,-1.140622766968546,0.11435259066215649,9.880876578761285
14.525864197583404,-0.8198449277178572,0.10115554056548454,9.890104101886623
14.528747049002202,-0.640094098433845,0.09985832779661907,9.866714844459477
14.545880049399203,-0.638749914428588,0.09707673282933936,9.86578690536602
14.548784965748583,-0.6957592707268925,0.09011501060449004,9.878386320638063
14.56589078664209,-0.6948382044025972,0.09712468641627464,9.85860746421407
14.568815229087116,-0.6171624287713041,0.11177535654360547,9.870232972077996
14.585904783888479,-0.5290937386072059,0.11380814701823766,9.881108502180599
14.58885081873411,-0.4220368788632973,0.08792680608613102,9.863823649915188
14.605914897674536,-0.30693374497475545,0.08516001322516313,9.877573759172495
14.608881225551947,-0.21583866838079685,0.09585031169227311,9.855659494890704
14.625927723860823,-0.11539005577389203,0.09076764921084526,9.871479364868177
14.628914424678348,0.06828101554071293,0.08101403557151816,9.869860988895708
14.645938726561287,0.13428480823887354,0.09962451178110394,9.866868612181646
14.64894489263367,0.22822879670389076,0.08094113338187359,9.891689233458067
14.665945760188809,0.39122034880904816,0.09333180035520583,9.882980664528551
14.668971414077877,0.5252860796628077,0.0723311701075577,9.863825704624988
14.685958952425405,0.6391222093650419,0.0745360990893431,9.850964900746602
14.68900180758667,0.7887425488636356,0.08693659597612152,9.87590292611131
14.705966310801452,0.8388435743013374,0.0734608932489238,9.864311901034807
14.709032666684422,0.9105027014140449,0.0860648385377575,9.87342819180495
14.725980598772404,0.9883663884779512,0.07631498418523647,9.86413919632902
14.72906539624706,1.00645435491843,0.09249772291889881,9.853877433538987
14.74599474659095,1.0528155186292512,0.08596237312187323,9.857015743054685
14.749097611021591,1.1204692109143495,0.0795563679518018,9.865360622117754
14.76600844103814,1.17876178863838,0.07208941805601632,9.868067560818076
14.76913512737318,1.2567558203541485,0.08166500699480027,9.867393390354735
14.786037435793686,1.3036365004503638,0.07696898582173968,9.855606005753135
14.789180202438398,1.0285228436287266,0.0666226384204698,9.860406175851997
14.806059529023692,0.7308230769050088,0.07201082481514244,9.863052158931866
14.809214960172953,0.6784288926249242,0.09071442132965529,9.884055232727809
14.826074284103019,0.6717857173730624,0.08673678613466809,9.87903520225431
14.829241903959845,0.6077445456879386,0.08377598134081181,9.848792749262612
14.84607408087763,0.5616938176526719,0.08668059084251262,9.867937445441225
14.84926098788613,0.4665995525869827,0.08641186026356606,9.87337803629163
14.86608171681878,0.36226461856266295,0.08042253363673534,9.880081768399368
14.869290169611757,0.19176351809351666,0.09738619316299206,9.870932210404993
14.886097122204985,0.06359126586782217,0.08653043171754364,9.872243521701513
14.88932282428937,-0.04508216746350644,0.09490072184510953,9.877229212299923
14.906114131215908,-0.11243897608090452,0.0945845732774064,9.880518099527471
14.909354191775531,-0.3536355671554327,0.0761282264836762,9.869284540995185
14.92613567422854,-0.46912276321395574,0.08307424394261229,9.879477876253182
14.929399057736008,-0.5229316820491487,0.0900386725149107,9.86622426744732
14.946156717337239,-0.5987016346230583,0.10129275602014602,9.885305330296493
14.949429774333765,-0.712819499625925,0.0972315178095994,9.86494618590199
14.966171701558201,-0.7937371255975357,0.1169549873967613,9.890713441459209
14.969461735072217,-0.9615541795935424,0.11110123917070307,9.86730304805659
14.986182574374624,-0.9803952108387606,0.10016296287741788,9.8766323214062
14.989484103293522,-1.0871564033461651,0.10674724392629291,9.861911356093369
15.006198776165444,-1.2386723993107707,0.10470451886733807,9.875627807485673
15.009516300639849,-1.073025004400052,0.10795688230855571,9.885899993414505
15.026214813410707,-0.7773321311364667,0.10719214221120525,9.87970757334995
15.029546356702566,-0.6033150160710885,0.09971791289700235,9.869027649305135
15.046232283966413,-0.6301369360020574,0.08760916676012886,9.870113828227257
15.049576288805762,-0.671792817843561,0.09597394332397943,9.867918497841304
15.066243357838196,-0.6519823600290385,0.09202637569059902,9.87452086684947
15.069605316750028,-0.5717131826082217,0.09400204671773689,9.878677055942186
15.086258965400777,-0.510366135416415,0.10326336391513992,9.876278661369504
15.089639598727889,-0.4211331959560661,0.08504777320865833,9.885681056297631
15.106280327381262,-0.3053699547284142,0.08979300894828961,9.875482312648753
15.109667900613502,-0.24954305217103703,0.10747766993439446,9.851745583077951
15.126296799746566,-0.12967929415196008,0.10028765594796689,9.88635371440787
15.12969877520509,0.0345944057851138,0.10797580481368103,9.862406927912872
15.146313920217269,0.16212316548279396,0.09544039852281838,9.856584620441172
15.149724600550416,0.24158298953742927,0.07963605412869032,9.879968955746957
15.166326786712123,0.3955632755561402,0.08804886176696888,9.880854995499572
15.16976047203725,0.5312824038708827,0.077189786240502,9.867694640147604
15.18634580264928,0.6788775386269775,0.08585455447825252,9.865965396555415
15.1897925810914,0.8435644999319194,0.08001097778426379,9.866448568529027
15.206367537100348,0.8829063196154823,0.058416014166207224,9.857937840384468
15.209823419925593,0.9249452036437894,0.08833614359496793,9.874143529417948
15.226382199428802,0.9919312873954146,0.07152123356655388,9.858592639016534
15.229848304801976,1.033955283954072,0.07608060091924916,9.87584679488205
15.246400892878002,1.0849171537111197,0.07475581009286182,9.864307637064416
15.249875934515016,1.16939539772422,0.07433448452264517,9.857846614120701
15.266416670652186,1.1799742184410762,0.07211001658508148,9.858606228434393
15.269919104568771,1.309032883920596,0.08218205261079806,9.86136244762487
15.28644935593004,1.2990695995849801,0.06885056380049782,9.865249280494549
15.28994906840335,0.9380243957337648,0.06796360040254702,9.857782459921923
15.306465315256602,0.724376533655453,0.07777254707611458,9.864845889893099
15.30998491994754,0.6490354662876299,0.09244977951431355,9.871963480897877
15.326487369906253,0.6263625583013299,0.0773012175181337,9.867086522691773
15.330004200144005,0.6405283834982172,0.08035529936407822,9.861933903166909
15.346495472713638,0.5702966140524361,0.07803104404158813,9.867050487466507
15.350032810932698,0.3985156502073967,0.09178871282184699,9.874578751414175
15.366512219565523,0.2649483582941364,0.09477070038347363,9.873695125724174
15.37005416543324,0.18279148440937812,0.09153190801474934,9.87015137371345
15.386522852127905,0.08437554418259732,0.0885718855150962,9.873528398518603
15.39007826309425,-0.027520180931815432,0.09358269740445947,9.866318156025129
15.40653477523355,-0.12070679001752797,0.10170939121787298,9.865866159410396
15.410103175321202,-0.37447694049941804,0.07994424356119026,9.870302608166888
15.426552220040529,-0.48404615153268965,0.09031584571628287,9.872578145884637
15.430131556431624,-0.5082554504448739,0.08943806337657884,9.868341239452011
15.446570823865645,-0.6040180112173357,0.10771228643624015,9.876261304961506
15.450159944952732,-0.7403161011666478,0.09128490229121917,9.877165558694736
15.466590036201255,-0.7972112830243029,0.10944279437867607,9.89194463551505
15.470189035362262,-0.9834106032262537,0.10144358411353725,9.85750842778857
15.486608760119186,-1.0305780206988477,0.10246946971797086,9.876820989201585
15.490217032804935,-1.095746218632829,0.09986117698164405,9.871011085451439
15.506627387389983,-1.2156077571709363,0.10339169640628915,9.877155944274595
15.510245288774348,-1.0418025045561774,0.10723068196690659,9.889111095619455
15.52664526519685,-0.7074671839379516,0.10249270980400405,9.889466993066685
15.530276138623199,-0.5716500478718948,0.08979801364431292,9.862980738767982
15.546670740814234,-0.6117449547450909,0.09108148036698185,9.875859795146976
15.550306851807745,-0.678014759111982,0.104888377839943,9.862775361005758
15.566692719268206,-0.687544399685071,0.10483935522642873,9.879342490606556
15.570335946580434,-0.615809541563265,0.10105699972686207,9.872311126557559
15.586711975559924,-0.49560904775687475,0.10475724873106204,9.87775931912994
15.590360938228274,-0.4218713683169574,0.08058449980973449,9.873705165431556
15.606725182173939,-0.35030194529540704,0.08069541620204508,9.892138418133328
15.610390131468531,-0.2609283059323729,0.08595032194121079,9.84466120353235
15.626747408461934,-0.10595480310512646,0.08918242643771838,9.884077529594009
15.630417011130291,0.09136509760993498,0.09189398325676361,9.873202706065527
15.64676720806009,0.18424580651540012,0.07548081118027763,9.870218631160906
15.65044410242159,0.2418151274851334,0.08135080539743149,9.874287486702606
15.66678617991217,0.3926162118863119,0.09103501965637027,9.86969553318639
15.670466900435219,0.520031637415425,0.08491738528719105,9.856526850943766
15.686799977215562,0.6899335656527698,0.08764778250452405,9.857340112175917
15.69049329512465,0.8615726929395147,0.08655398667284034,9.871698432582695
15.70681954812077,0.8961433090134869,0.06963862494958103,9.87240974273907
15.710519772024394,0.9710225367383625,0.0877414263732413,9.870018471840035
15.726842194275978,1.0275750035205011,0.0756204973285389,9.851865384491086
15.730557920098025,1.0367628204850965,0.08302802009020577,9.863116499444189
15.746870628326263,1.0896322783796333,0.09154403563792858,9.856924058488783
15.750588653218676,1.170782997431648,0.07512914499151317,9.868706028086967
15.76689838911771,1.2188981568035169,0.0702147027517336,9.867624524493694
15.770619109449976,1.2914166469359363,0.07093748863989954,9.862189584606684
15.78691526426226,1.2387011341066816,0.07278018385940668,9.858706915828
15.79063454474851,0.9220606545124814,0.0747898245582225,9.863428710823865
15.806927623541506,0.7049610805366787,0.07707401997183082,9.866581994170971
15.810662834644317,0.6473832731958509,0.08311350748577423,9.871621258652548
15.826942818192812,0.632553399591108,0.07287474353196374,9.86869337740673
15.830693491021282,0.5982461575730242,0.07503596851826534,9.845731311034683
15.846976525413435,0.5369601156268152,0.0851757864937093,9.868680170676024
15.850727545000826,0.42777736100349106,0.07903155616815954,9.875293480297401
15.867002557189862,0.2806423000123282,0.08729066634207126,9.869149215020567
15.870754312934544,0.16277647012553068,0.09313663955610223,9.874413437304481
15.8870271710393,0.06424644441441263,0.08547777472008589,9.849646903572536
15.890774935791786,-0.08161422034615921,0.0973258027938146,9.880148518642358
15.90703441473119,-0.17548112034594218,0.09135062345449786,9.872610193645436
15.910793764894857,-0.3859994147236812,0.08789793345084741,9.8760259517271
15.927048635922038,-0.4930605761953267,0.0838084873323737,9.862268632115343
15.930814150133026,-0.5532030859607878,0.10359640139068857,9.873371863693446
15.947063000739265,-0.6213449522385941,0.10727306577559156,9.89078631543422
15.950840556021133,-0.7259375008489786,0.10331686052302029,9.87791275164652
15.967092814895356,-0.8118130949344271,0.09588772216377793,9.874970953425882
15.97087770696076,-1.004820440608521,0.09619706642563425,9.865391783409423
15.98712188038173,-0.999078110797645,0.09708667503460575,9.873774419233278
15.990911372650036,-1.0920922333234473,0.09787209315402796,9.858079803559193
16.00714812085265,-1.2144208417198394,0.10521989264667621,9.881017860533378
16.010940113200665,-1.0174541831195236,0.0976548384602343,9.877237244304016
16.02716967626367,-0.7056401842720204,0.1096507855551276,9.877960708564776
16.030959877811824,-0.5915299508698992,0.09000441628805213,9.867621679561559
16.047184159002715,-0.5425039578215941,0.09399712352014901,9.878894415087725
16.050977385146282,-0.6515037568141585,0.09424772335995027,9.856282951854059
16.06720007640032,-0.7546471401683796,0.09675554337974336,9.877769981955632
16.070997624644484,-0.6574917909569291,0.100290344645871,9.867441640574839
16.08721262530552,-0.5300776708047718,0.09717576978252349,9.888455449022496
16.091018067039375,-0.4153001500757563,0.07651228467532956,9.862734949188846
16.107236652737086,-0.3069239475366712,0.09442356071377836,9.88035415302527
16.111047847993675,-0.2055099796092212,0.10332071624321872,9.85934480476489
16.127268308711447,-0.07219027604928158,0.08641344043587455,9.888118170534057
16.131082019944365,0.09637910426506863,0.08572692057209552,9.87030175948571
16.147291429325424,0.22306957373477398,0.08266994567267535,9.873146112869364
16.151111570616937,0.26641389633683404,0.08127851517321237,9.875791160906793
16.167318584992938,0.4249584229504755,0.0848129636052176,9.868281131022957
16.17114248952495,0.5607637328902585,0.0704555737509255,9.869031791764737
16.18733988729469,0.7069159016217913,0.07842548598072818,9.86508095956453
16.191161335511023,0.8459441794255725,0.07783320807403982,9.87068646968897
16.207360062901586,0.8839077682906938,0.08405753824214517,9.864937972706988
16.211186637347172,0.9525750902951594,0.07660451041761582,9.872964051291302
16.227380332640426,1.0409918595819172,0.07722994071863219,9.866937808248789
16.23120244048597,1.0663710670271167,0.09204948066915897,9.854090387898474
16.2473929511382,1.102378316718266,0.06556757000722636,9.86263141643772
16.251226382249765,1.1917254638397659,0.07736491002329966,9.861762515090996
16.267421571801883,1.2272536808118928,0.0822283714788183,9.86663662810416
16.27124900216498,1.3312611657387636,0.07492261614740799,9.865499783234261
16.287436265994522,1.2297600083959945,0.07138690139997018,9.874698733430035
16.291272352298005,0.8489778886354158,0.08199907026091631,9.8535998834576
16.307459058751753,0.6317524589741591,0.0772418596259984,9.883468310210995
16.311294761287282,0.6630082349966884,0.09497294582872157,9.889477857315644
16.327478443752124,0.6546357516160994,0.07399963643698235,9.858774443896419
16.3313196173004,0.5952486311981354,0.09710451878289866,9.862938797034928
16.34750175347695,0.5061171599884293,0.0772122277883686,9.871064785334498
16.351346345644508,0.39036558324798765,0.08813267332927915,9.865665164330428
16.36753395623411,0.2681980464007762,0.08307367253784295,9.875284472287872
16.371378650242697,0.17195477684892277,0.09518198047924914,9.868325700576367
16.38755879557391,0.05539575544820566,0.09544488871856735,9.85344754780825
16.39140311222972,-0.06932060179292822,0.09608859733098431,9.880303787215059
16.407586403797552,-0.19257852183475657,0.10006095479159242,9.861072348293533
16.411433761097307,-0.4202709178971696,0.07711642369480512,9.877948050442125
16.427608602937312,-0.5014026713376941,0.09104538926822588,9.870952624000104
16.431457593133455,-0.5591257199381637,0.0989368604066552,9.872755683099163
16.44763397728434,-0.6487594414287572,0.10033299891705207,9.866176006966532
16.45148820764418,-0.733504812650128,0.10183840949729552,9.8808679575138
16.46766367669908,-0.8212407875981943,0.11031535463414745,9.875161345314748
16.471507838334777,-1.0089950094965692,0.10842924468892486,9.8763836763028
16.487688057140435,-0.9987615937853885,0.09886307417929566,9.87447291724746
16.4915382044737,-1.14469032910193,0.10554490003216604,9.868420349844497
16.507718629041467,-1.225705772478632,0.10674510775991634,9.883058549300255
16.51156019436943,-0.9696073236220627,0.09906916634962654,9.884196116705388
16.527731462895684,-0.6799373057923179,0.09670535049112242,9.879560936562594
16.5315785281052,-0.5569072779795339,0.09534461058438058,9.866014507380767
16.547744328246743,-0.6131701797312379,0.10401699826254841,9.870826589124617
16.551589433302393,-0.6563633248778764,0.10066611972319738,9.85732578329421
16.567755799124527,-0.6616551384441036,0.10081706012740707,9.877110942611859
16.571605075522957,-0.6509580368293384,0.09390765070460472,9.88252213213977
16.58778162610912,-0.5510516414406096,0.09271569103691107,9.875157621533948
16.591629687590437,-0.40643669608211086,0.09024021345650424,9.875806546639765
16.607805036297755,-0.28106008313160546,0.09190722138172217,9.871024020960007
16.611651957554127,-0.18399052639419583,0.09863348896687738,9.852755516431385
16.627831899583644,-0.04491245312964709,0.08115584816299853,9.885818513415693
16.631678356490728,0.09782024208358299,0.0861037898278207,9.870231902044784
16.647852798901717,0.18761853511213086,0.07870429102627818,9.882297485214968
16.651705065041774,0.2894254287236049,0.08821306048314499,9.862884247189633
16.6678867085025,0.418895359773317,0.08748993566576191,9.868864853281345
16.671729287607977,0.5798328782134058,0.07035254215545554,9.86089319076894
16.68790470773067,0.7226004690075741,0.09753151676271721,9.863105988328027
16.6917471261674,0.8637344965851558,0.06792383867781643,9.865767041192639
16.707930746002532,0.8867498132879013,0.07066559652976394,9.859466075533708
16.711768908415277,0.9417308406178192,0.07326304160690797,9.862151068355404
16.727951448255233,1.027031286399204,0.07764247696456654,9.86198749238122
16.731796681826715,1.0604173436955653,0.08177508825342099,9.860560435673545
16.74797757553402,1.1374326824846719,0.07623858492559722,9.864444461114584
16.751822737955816,1.192052168819648,0.07273615618405468,9.855408690215999
16.76801014794748,1.1807191013499663,0.07568341987887828,9.86245239344843
16.77184740037043,1.3249327505788653,0.07256635864522934,9.88683350098775
16.788028770178382,1.2483867347793578,0.07024054262760894,9.854631878874097
16.79186184143156,0.8582102490879967,0.06308295619569126,9.855408606345557
16.80805164883439,0.6663790334988379,0.07365596571744036,9.878697906733235
16.811880679973147,0.6231313517633146,0.08577860001049283,9.893074205025306
16.82806568124083,0.5660981999240409,0.07878146325672043,9.876263346609045
16.831896963709532,0.6326866808009423,0.08106459199773429,9.846071668704422
16.848094415463255,0.5300303735064367,0.08058194386786091,9.872263741885494
16.85192279050383,0.36806201952479195,0.08528391250936027,9.866232518198771
16.868119268239194,0.2434781959115873,0.08622500564971299,9.886903172503212
16.871944780322416,0.18904570742594776,0.08617417204173629,9.86218362880688
16.888144198400163,0.03660669136794186,0.0854500898039291,9.858592288033902
16.891966260197886,-0.07625796642754812,0.09719401985622016,9.865334241580467
16.908168173816243,-0.20325944252017794,0.08954748189713772,9.877978259767323
16.911994282017456,-0.3998505729450898,0.08158101948185624,9.882622075496128
16.928200280604504,-0.47905950754226656,0.07620312620204799,9.866699906791489
16.932016950290098,-0.5501728579729196,0.09524251718752695,9.874012297797105
16.948225401998698,-0.6751787754869759,0.10446712566327117,9.8721913073051
16.952038602549003,-0.7518482286052273,0.08705683306380871,9.8616340258591
16.968247116123795,-0.8749482350885747,0.10551972935247114,9.877331035321905
16.972054610731583,-1.0255937725053228,0.10877753106174973,9.874049977513174
16.98827477930372,-0.9704199851459472,0.11627968872838028,9.866421797489973
16.99208411486762,-1.1386253073163353,0.10100326826858667,9.86008404717292
17.008302582167612,-1.2233736640582173,0.10203260815178573,9.873076652393268
17.012108073210484,-0.9249484141363151,0.1150905658491017,9.882895591229763
17.02833457528303,-0.6642767662752368,0.1027542869291538,9.877817361132287
17.03212726720537,-0.5666800032010484,0.09093706881121878,9.859448718883472
17.048353963774204,-0.6370914392699937,0.1098112570058529,9.876712182296703
17.052146269560026,-0.6271121103529004,0.10041499591893516,9.881139063649066
17.068379068521843,-0.6261755037912708,0.10477125730424845,9.874521727302971
17.072164870589415,-0.722069200011112,0.09800552262235246,9.87546557857419
17.088398484035586,-0.5532124918023822,0.10828989830301378,9.872793573019877
17.092184657352288,-0.3975270662446418,0.08986943571825082,9.863710538835964
17.10842537678285,-0.2511963960646151,0.09827824588511473,9.872535767685546
17.112205749334972,-0.1590646522596485,0.09551625102219533,9.856706194958672
17.128451730618647,-0.04569428303953202,0.08533456044349767,9.87914808152156
17.132226585827574,0.09542472209486579,0.08592584398532668,9.863581530293343
17.148477812644114,0.20522420973348046,0.0756011857327058,9.884240039521977
17.152246416780272,0.29660992343101056,0.09547837880304898,9.866488655513804
17.16850413310109,0.4323959143018331,0.07664543125940079,9.879784640169115
17.172270192173457,0.5638166733761482,0.07256118945724886,9.856355291893454
17.188532584064024,0.7525868228808164,0.08220549699165144,9.873918759519855
17.192291143913327,0.8688447919226377,0.07740739137167298,9.86666116908342
17.20856072221393,0.8963296398179998,0.08155286630471038,9.866959309192433
17.21231561806829,0.958943747583479,0.08902437160366669,9.876348625073446
17.228586562147186,0.9878683826289483,0.07001621558586561,9.858168449946914
17.23233158577897,1.0614914570664837,0.09136144774788943,9.869669390151039
17.248610339670332,1.114333711759333,0.07373506556156388,9.857203437190353
17.252353063417765,1.2140648757308756,0.07758462501669805,9.85607834404541
17.268639490461016,1.222865707173329,0.0681488888905784,9.877683755364087
17.27237472505504,1.3236799885627364,0.07529580201849262,9.87538575381284
17.288668501430745,1.1876182093208154,0.0737551969902391,9.848007081693295
17.29239391962354,0.832998536998013,0.08223880080866124,9.846323403247016
17.308697214266882,0.6287554909333745,0.0724629780202417,9.875926144282847
17.31241893184649,0.6276234646183608,0.09329331901491295,9.879221206172561
17.328730785281813,0.6106395461822827,0.06332764359620094,9.858610610285218
17.332448956242867,0.6117492414987808,0.08808112157740015,9.8491962644817
17.348759256965323,0.492183366796523,0.08375474536918844,9.875629847938825
17.352469805124795,0.3707059428385015,0.07614291766368782,9.86380096190419
17.368788991480347,0.24606575960468552,0.08650375265286969,9.879848666712759
17.372490927634466,0.19222747698414797,0.08348966700463298,9.860661193578864
17.38880819777722,0.04713615880938986,0.08432185150400161,9.86587504566325
17.392495431792195,-0.06669700098657078,0.09722771234685582,9.871674741801247
17.408827475545852,-0.19335905654120075,0.09846991737020298,9.857204849038574
17.412510060358848,-0.42793216816053503,0.08425229499384454,9.877381917610606
17.428848004663273,-0.531026759498384,0.09407433616742927,9.858428967273738
17.432525060072873,-0.5596420855981369,0.10351488243375888,9.885191122996448
17.44888658110744,-0.6648110068349297,0.10264092362637633,9.871374003179863
17.452560117990974,-0.7216910367775419,0.09847636467758687,9.873514263643283
17.46892451960967,-0.8164171979950926,0.10423730099054619,9.873447452105372
17.47258648909881,-0.9875373835177912,0.10607857074301247,9.86008257808834
17.488953526047734,-0.9935486419727876,0.09306108406095204,9.874064577324894
17.4926032485676,-1.1392249104957488,0.09079600895816102,9.869748029735922
17.508971743311243,-1.2017483681177206,0.09967937779046981,9.887477100550761
17.51261441638819,-0.9455367813329086,0.10504263922516538,9.878771125889397
17.528994952845963,-0.6715583641554721,0.09693255233026442,9.873998930995407
17.532629234159188,-0.5749701007290031,0.09257534854862154,9.85184334743856
17.549021082322657,-0.6158803876868904,0.10602239207486508,9.86488023844227
17.55265059780772,-0.6801639824998721,0.11237549903434295,9.869957520449137
17.569055712171032,-0.6585753840347826,0.10903868430960136,9.882513182268834
17.572671311579597,-0.584567742447144,0.09146192715468064,9.86332933967782
17.58907993870712,-0.5160899643131857,0.09874985192746122,9.861089420661765
17.59268881357639,-0.41796833046328374,0.0986143954003675,9.867113388216854
17.609109201213617,-0.29266294708173407,0.08541193036013345,9.87596318106978
17.61270457615238,-0.17524323834672575,0.0950956916042691,9.860813104773396
17.629125678889345,-0.034282971963528815,0.09381676924963811,9.886326381830077
17.632715246792827,0.10307262255298481,0.09782359962543828,9.860340200424753
17.649154607368875,0.18233555992188633,0.08371251713883991,9.873338709871142
17.652733477206976,0.26521381922726117,0.08470882569909795,9.864901327881954
17.66918267754745,0.4458918713012904,0.09686382272226642,9.865738624759137
17.672755776798024,0.604874122121191,0.07581725140857962,9.851853650162676
17.689217381381606,0.7609575337517986,0.07657814008621097,9.889146840300517
17.692773716554946,0.8407460816882448,0.08392850719836087,9.885818235425763
17.70924331726919,0.8508321408861487,0.07345257119780245,9.867005592223034
17.712790475264057,0.9610758573032658,0.08106862073263915,9.870594865733413
17.7292720550794,1.000997410624164,0.07736404612696236,9.871709397537327
17.732804624759947,1.0682527397008683,0.0712629425246629,9.864925316870014
17.749295354960353,1.1423504698714306,0.08086274810930032,9.86069873171794
17.752824470834263,1.1964991842450934,0.06850769191332352,9.852451616246956
17.769328185975798,1.1709793408081086,0.07034080070683997,9.857741237240688
17.77284270233805,1.2912933170093432,0.08229939633207607,9.868722906106953
17.789356937262948,1.1873083368953792,0.06630979267275719,9.86709423743853
17.79286307130935,0.8581475503184944,0.08122964799184279,9.863320695725593
17.809389480723404,0.6826455034858645,0.07445837667300655,9.873702037323092
17.812878659749334,0.6585862576281292,0.09300669489187746,9.87076668320725
17.829414328744186,0.6271782325614798,0.07992051730462103,9.856240281821226
17.832899926020975,0.582057160460942,0.07975829545612813,9.860448116417233
17.84947273418585,0.4791810245781133,0.08155361444250799,9.88458840644087
17.852935726119586,0.366995686286588,0.08634986762994079,9.866740109525516
17.8694979723755,0.2617616262890285,0.08534325335226567,9.872120844873342
17.872952357992855,0.1897196783940423,0.0908242206706984,9.871580712270463
17.889527683537096,0.013433238115715134,0.08715658200144005,9.858856905062735
17.892969480940895,-0.05720137842971838,0.09670131146607801,9.889130298021527
17.90955747625929,-0.15569127434716348,0.09285189802359879,9.870352311338946
17.91298646322376,-0.4258918540928017,0.09364493364942443,9.874544468439233
17.9295877165041,-0.5246926141163132,0.09482031410574852,9.868861741707514
17.93300921643879,-0.5679809869774569,0.11055524453100962,9.868655820042413
17.949626257948943,-0.64162323004413,0.09712658008266986,9.876918900263416
17.95302996685435,-0.7186744582844942,0.10423719394700229,9.877965992769758
17.969656941944375,-0.8406726171541712,0.1092563889471634,9.876335439104881
17.973048959233335,-0.9559023063799531,0.09577635291489742,9.87524564242393
17.989692703295706,-0.981348716332695,0.10483881506838326,9.87539197343086
17.99306633870462,-1.1163217282197244,0.10364455972136745,9.85928671236311
18.009725952475137,-1.1849864925173295,0.10488540531275778,9.88289104805576
18.013088503140168,-0.9413268114979417,0.10965531457373572,9.894197365274298
18.029756992127222,-0.6817275775924916,0.09167523798877487,9.876767192649789
18.03310604430564,-0.583269569135724,0.09670360160875181,9.865054478397072
18.049787618437847,-0.6385836009388026,0.10443471052691612,9.86150818419705
18.053116370943776,-0.6829680356628953,0.10670313150948262,9.876761899780726
18.069810754590307,-0.6011892102203369,0.1019644621820167,9.88124124537784
18.073128721611276,-0.5211530713337619,0.10012307911937897,9.877956480205135
18.08984155500771,-0.5236840690127597,0.09955550643211572,9.860279099962868
18.09314221602642,-0.4725081196709809,0.07786363321308082,9.870787196788983
18.10986923022014,-0.3147363112585887,0.08819619384504543,9.874425842910842
18.113157887960952,-0.1985788260672901,0.08136846543710162,9.848415599501092
18.129896758260685,-0.0403114515857046,0.10917182273948034,9.87733767261391
18.133167680572367,0.1114135529818841,0.09361130412368673,9.858290989119242
18.14992772828833,0.19319337196596562,0.07720476162775922,9.87914755523072
18.153182731458806,0.29955089024642056,0.0805725697994503,9.881132979344045
18.169957064441085,0.43163235724699184,0.07423841266171981,9.86936632572053
18.173202138340464,0.5423670128984245,0.08063763401538016,9.8666902566178
18.18999521268221,0.7342524598025028,0.08174277846397457,9.872242194671951
18.193220476165035,0.8836539278062115,0.0762850581580048,9.876427799302558
18.21002656614718,0.9133255842855011,0.06301951021586394,9.867574263248704
18.213235026252043,0.976473771887016,0.0671046870682475,9.85351548271978
18.230057654689617,0.9973150044831846,0.07385623571385863,9.863958949136812
18.23324770738386,1.0495817392551756,0.08841503024174867,9.86865605836686
18.25009139368226,1.0837212749364415,0.08712097771183035,9.850547303895688
18.253263835859844,1.1683286456240565,0.0803697414456095,9.877697410396792
18.270122613179858,1.1969301918250268,0.07558234406130333,9.866779103830268
18.273283302750276,1.309777167206985,0.07941884010190157,9.849716096282647
18.290161731872143,1.1880727741779566,0.05984418554641789,9.84888297264622
18.293297832362274,0.8554157228640157,0.08799588217375544,9.861772814776486
18.31018938903184,0.6355001898424724,0.07166275458088209,9.862056852959947
18.313310069882984,0.6212898681430813,0.09515519896246603,9.883776546137423
18.3302225245969,0.6263453083325562,0.07505034765273538,9.856888732313024
18.33331965529884,0.6172998585810038,0.08654478013238671,9.849832583599435
18.350251100089125,0.532312241769632,0.0900322246196474,9.871244048551642
18.353336112823353,0.38708009461423504,0.0907440782100211,9.862896430987375
18.37028123947099,0.22105658057719754,0.09471263737007318,9.879631159384122
18.37334778054109,0.17271492059152904,0.09521665211449191,9.867671485584587
18.390314113172536,0.0452701782315729,0.09007751107336444,9.84656276147808
18.393361700360703,-0.044379169946323384,0.1011006302297128,9.871121142208729
18.410345505524994,-0.18402645898333786,0.09480934636008616,9.879369961061629
18.41337142121846,-0.4003185056737517,0.10075935500532256,9.872929949750395
18.430377190567498,-0.4869203632586429,0.08899344332326208,9.861837906143018
18.433388474711844,-0.5640457190523146,0.10265941319770577,9.884584331036097
18.45041846140068,-0.6498941566291889,0.10630866226778227,9.866255285806442
18.45340441457411,-0.7622293596377939,0.09400549515346909,9.88437289799617
18.470453606959197,-0.8300344931549813,0.09645164325102672,9.873703020638454
18.473429451487164,-0.9587237925089376,0.09491394224087969,9.866040772235865
18.490500387760957,-0.9574500721159063,0.10651709636464685,9.868041617710906
18.493442353183443,-1.0987455428708444,0.08951763775895655,9.866479122413027
18.51052825076893,-1.222515307916633,0.09885965577378539,9.90021507208729
18.51345688172486,-0.9945417384241942,0.10048654918986746,9.891506142005877
18.530566223369537,-0.7067630713577805,0.09827554131846679,9.865497251005745
18.533466679919382,-0.5716382221196525,0.08911866438628478,9.857405896144332
18.5505956099545,-0.6331564356550756,0.08894848310884748,9.867703005419544
18.553479663171988,-0.6805041494378977,0.10857360901962863,9.871891816263622
18.5706320951145,-0.6299246310151252,0.1117344337174743,9.869731513547292
18.573491646180585,-0.5703217927091345,0.10097970599445158,9.87344291119446
18.59066034985787,-0.5198847408761104,0.09428359858437516,9.861180962362752
18.59350236579551,-0.3786509206728759,0.0756904010288404,9.870045132808146
18.61070002666374,-0.275206059747368,0.09782705397243321,9.86830706023495
18.613514792635563,-0.2107544057600346,0.10004573726989696,9.863012310940904
18.630730243066676,-0.08466584551321929,0.10604678714192013,9.886433803571892
18.633527594514632,0.11447665889852791,0.09973228639097206,9.862396191395806
18.650771273065885,0.1849156615151206,0.08000868839062447,9.879003278374045
18.653536577947452,0.28362620847654,0.09011869356508477,9.866033075893961
18.670799111170304,0.4214622093304878,0.08090288617175773,9.85204108149796
18.67354573280433,0.5569542864495863,0.08251509540048917,9.871705321365571
18.690838738794795,0.725768759073638,0.08506346668083778,9.872656752536066
18.69355660450417,0.8510327922226625,0.07234669881590924,9.871740722270479
18.71086813763032,0.8629006700936371,0.08148485866544258,9.85277504510972
18.7135642180607,0.9416406630726757,0.07908612770023722,9.881155472173944
18.730909023048227,0.9801213015463525,0.07791969865292843,9.85888557848008
18.73358387733985,1.0437070219636584,0.07447490837432809,9.86322525121165
18.75094214348248,1.099331001982165,0.08015284105225418,9.853326202344387
18.75359053547808,1.1880684153338206,0.07689323385296593,9.87413574418227
18.770978170602447,1.1742343554978447,0.08478617054574981,9.871808927599568
18.773599523829454,1.2733914140292881,0.07063762137376796,9.865437125420891
18.791003714947347,1.1708669301309278,0.0665616131938125,9.84976704656597
18.793600114146567,0.880504826689135,0.0762525248916571,9.845428639121486
18.811039287733188,0.662753909823417,0.07654005167831099,9.870565904244293
18.813610587844767,0.6374260309094949,0.09549568834364312,9.88427660376719
18.831076056887458,0.6234786881380487,0.07554556089963047,9.855960565962087
18.83362090226633,0.6273227908015486,0.08230211265334819,9.862192449412612
18.85111276079448,0.5546210941961892,0.08535732709145853,9.866747883608616
18.85363422968853,0.392701190049132,0.07711412870131511,9.868949054702219
18.871159516732458,0.25555446697274703,0.08026130363222934,9.880581970901321
18.873653150408863,0.1395379653305885,0.08910738841963141,9.871963364058134
18.891206046126587,0.01084309438964451,0.0715946851542069,9.858454201113297
18.893670285160656,-0.026538338119519618,0.08474814827664127,9.891546456710662
18.911245428692535,-0.14702527754277342,0.0972787782833416,9.866893925835669
18.913675913503482,-0.3556545663177442,0.07317976757462094,9.864850158489848
18.931273407364852,-0.48263213003039473,0.08212961001029738,9.871041305957723
18.93367578235979,-0.5421010770589489,0.1008423058524902,9.877870943277546
18.951301926334594,-0.6453945726523278,0.09912174250513782,9.869437402546104
18.953678789777175,-0.7522684101464314,0.10545271578571709,9.883790780124666
18.971349149533587,-0.8304434062352926,0.10808358147577597,9.88322963068003
18.97369732569043,-0.942539846006657,0.09704049987662391,9.869806963571266
18.991392454877424,-1.0099760082981315,0.10116110486080777,9.884957006727808
18.99370949970666,-1.1496281096130603,0.11150962190431822,9.880403351415252
19.011431381362858,-1.2149823446507466,0.10683541601463066,9.8932051691493
19.01371577832745,-0.9893520779731737,0.0997740288688903,9.893914009024666
19.031459559152587,-0.6772270446630217,0.10197099126709953,9.869814880731454
19.033714910909165,-0.5535217794524742,0.08159443731180846,9.856451714318656
19.051494142806522,-0.612855303137657,0.0873316906564803,9.86435613126845
19.05371892053397,-0.6964331087906841,0.10995215196774533,9.885629472168436
19.071533734998184,-0.6517441263220568,0.1021584802860768,9.877452066374245
19.073726821071673,-0.5627680364979326,0.08834468809569165,9.874488067603414
19.091572981773037,-0.4874403046552628,0.10117177130144532,9.875453370196869
19.093733136677393,-0.35413586195169783,0.08421027716491555,9.87829050236905
19.1116124907279,-0.13725701185063027,0.10300030939449349,9.870802741350893
19.11374067813325,-0.2763402223724478,0.10328673691384645,9.850793846961245
19.13165166151077,-0.2618664036404056,0.09708947712567764,9.900682060769455
19.133748978476937,0.00026371961438818663,0.10496667849743907,9.885246254261501
19.15169765016084,0.1790639265064939,0.07954477369082363,9.873502284184971
19.15375855818156,0.31927286782887576,0.08928266115140596,9.856548566288382
19.171741301133753,0.503425056765158,0.08631413277955816,9.861905861194206
19.17377047557234,0.6478848592361645,0.07119314642149238,9.869530585251923
19.191787311991096,0.7136538604132983,0.07569189082087002,9.859925107464845
19.193778589887867,0.821577002089359,0.0827184907359057,9.864557799787873
19.21183432739107,0.8475055271651963,0.06841374048775907,9.864284022996829
19.213792290133817,0.9450235230573213,0.0694419390558631,9.869473436305384
19.231873423919378,1.0265315566751203,0.07627145050017979,9.852181445098664
19.233791174468713,1.0865730918713938,0.0805418236236778,9.868502410860733
19.251909835807798,1.08806798560428,0.07682579940954304,9.853351751509917
19.253792406531602,1.1376831899823796,0.08597972087733528,9.873352239564264
19.271940319210117,1.154834873558583,0.08536712431506169,9.880493237242167
19.27378659187295,1.2869113041867035,0.08000710473801569,9.868119806846819
19.291981247824097,1.2112179205783338,0.07221806324425656,9.840759162019276
19.293791241207924,0.9079825691492547,0.07239032047572351,9.86267694924542
19.312027740597287,0.6456143643115336,0.07387174024081707,9.86481796718281
19.313807859985907,0.6116491610121819,0.09685127819767546,9.88865506895949
19.332076857536745,0.6189538316280918,0.08769045627957771,9.86126360241299
19.333811457474418,0.6241907835978645,0.09324387195233301,9.864012094898884
19.352119483411016,0.5598388422817318,0.07759312799075002,9.865520765840905
19.353818090332243,0.43090586550758564,0.09049467835103124,9.860269988553412
19.372162372329885,0.2525120474839979,0.09720555893173632,9.876483598610896
19.373815386735448,0.17179049487213607,0.08322457452108849,9.866166448913265
19.392207794330467,0.05001910205014239,0.07911311522222762,9.853459573395684
19.393820948116556,-0.038044554917101674,0.10498970921682899,9.893892927212521
19.412251713059614,-0.16968015087164004,0.10397924956300231,9.857590483805632
19.413822354704642,-0.39695579776219847,0.09171311575107413,9.856777452290158
19.432293402052046,-0.509231592915211,0.09839315830197949,9.883442979429798
19.43381927723314,-0.5465145601150372,0.0959458413606126,9.868133158074446
19.452329160903876,-0.6237166523222253,0.09533922119792371,9.8806617165877
19.453820718430453,-0.7150577013886892,0.10339049645596757,9.87769484736964
19.47238003678321,-0.805789453595078,0.09999678091157728,9.86033201220044
19.473825389057694,-0.9751009814054407,0.10231748391407597,9.876104492937438
19.492426123537374,-0.9854190134714184,0.11339126389924989,9.88980019091658
19.49383531103058,-1.0913645625333734,0.10619763368372899,9.86123637101889
19.51248286412482,-1.2221112728429897,0.10579606668122532,9.893704435521107
19.513839653441632,-0.9860016331008566,0.10670099406090443,9.88353841913062
19.532522693906166,-0.6879177519359211,0.09916454128827588,9.87204256648828
19.53383871295645,-0.5744518585037108,0.09155294644713793,9.863559850685943
19.552570511991043,-0.6370888999122551,0.09813029254253723,9.861297249361172
19.553836937434827,-0.7223579497634912,0.09880821880150528,9.890613526894082
19.572615334122037,-0.718055009113413,0.09483392910913153,9.885852886992812
19.573838906111206,-0.6029919213251272,0.10417594234835319,9.873234162758703
19.592669505393637,-0.46364018066859886,0.10260695951406244,9.868629440183348
19.593840470694786,-0.3654940575083977,0.07479576438509741,9.864415482309095
19.612716517406454,-0.2681859179324967,0.09986241838244721,9.873395309768876
19.61383910859901,-0.18902026764202143,0.09111963960273245,9.855910808267398
19.632756458294892,-0.07065560885726328,0.08803125128723416,9.887701895100529
19.633831499583064,0.1053173676162509,0.08687131783157793,9.864597353352094
19.65279768549783,0.17182100914706042,0.08081418063619768,9.85604099071259
19.65382951450802,0.2776514030577864,0.09239520779222672,9.867799995692211
19.672849465587927,0.43964426589018885,0.07841745861481385,9.86235995546283
19.673829035280757,0.5721100097635979,0.07214750260196,9.865601378260807
19.69290505293666,0.7210499346217253,0.08877710647898772,9.86096374101809
19.693829853205088,0.8354300562932301,0.08961316057720478,9.869796666774086
19.71295393988545,0.8720055582911386,0.07647204426677079,9.869205899744525
19.71382384979785,0.9565486923838628,0.07731241388345662,9.865362967617296
19.732997109865266,1.006914076645407,0.07841765062277803,9.859441453638908
19.7338134589617,1.0401039228243272,0.08868160339724482,9.866253368835284
19.753042289156372,1.0734307289445315,0.07170253854160454,9.86453782870516
19.753815332388914,1.1569000358645947,0.06776549516763605,9.87863240773038
19.773102138252316,1.186495497464226,0.0649693034737803,9.860938182990733
19.773821423484875,1.308219180235613,0.0798608252642374,9.878477006731334
19.793163178039098,1.1922616076361896,0.07704939841629621,9.853657004944166
19.79382104624004,0.8632453961610641,0.07739918557567506,9.853653479985875
19.81321767592986,0.6391802666182254,0.08931264845018816,9.859862601560389
19.81381473760206,0.6383297701395714,0.10100606642350515,9.883407545840884
19.83326172898028,0.6470176552808621,0.079471640342825,9.861243871304112
19.833798959735788,0.648545219733119,0.09207742359600159,9.858592138403754
19.853304383485295,0.5316396417512795,0.0767403743292878,9.866768990900644
19.853788853253782,0.4030759931887709,0.08384208535098792,9.874895494720942
19.873351425052608,0.2251800409758682,0.09773270437171643,9.867364062217478
19.873775704269388,0.13158300010143506,0.09701014349871567,9.868475510962403
19.893404142534,0.054178762636948444,0.08257230840749417,9.84997177268474
19.893768752382353,-0.026062513173225443,0.09940871584955469,9.874104098024091
19.91346181375048,-0.18647865601263244,0.09612692347347648,9.861969992458112
19.91376858819616,-0.3969954301359473,0.08652560758996396,9.88032374970165
19.93351821544361,-0.49285495777043553,0.07762576132627716,9.885604594722585
19.93376055534983,-0.5606067134329433,0.09391224188322403,9.85978282390511
19.953573389491936,-0.6456648587580013,0.11060612971520455,9.876877671702182
19.953752312826424,-0.7181297932163235,0.10773966982847004,9.871088812828615
19.97362537876501,-0.8142699370498936,0.09723754665953559,9.86220197988488
19.97373641036673,-0.9590356369381846,0.11078427359334754,9.87718077817262
19.99367969156096,-0.9802058951955285,0.11671995158703811,9.885123123651208
19.993726884893107,-1.171425724095201,0.1102676863349081,9.864434926770706
20.0137362594928,-1.2202401150988504,0.10713990805712532,9.887436369800904
20.013716791082064,-0.9369668457792968,0.10517316904657686,9.872184735954217
20.033793533217573,-0.6742572575984959,0.09698246738955975,9.877362684542272
20.033705744595466,-0.5649317020326222,0.09518557966594454,9.861215419942466
20.05385561121686,-0.6377538831963139,0.09847690300888153,9.872827842518365
20.053699816462366,-0.70177706584007,0.10655242606283831,9.876793124327891
20.07391478426914,-0.6870927840278046,0.08938258078896934,9.8746273783294
20.07368771736694,-0.6069412839368838,0.09759177418158839,9.866317305034604
20.093974030692547,-0.502008838695996,0.09773322523457603,9.87132056249088
20.093675085542717,-0.36718430895472415,0.07565497442205338,9.865821963934104
20.114033500293505,-0.20853304579236953,0.10119076495367973,9.864132067452333
20.1136615100944,-0.14205856960856308,0.09802270453354649,9.857501803057254
20.134095470700906,-0.08428292399223336,0.09360991635199253,9.88168271008392
20.133651421559136,0.056576914374646584,0.10065041893087748,9.863129984226514
20.154164380526566,0.14623131783128876,0.09079509775542949,9.873263087702684
20.153647432298374,0.3082460443330671,0.07821423741170654,9.865204901780702
20.174230988341858,0.5004321951328904,0.08269294726166994,9.860580962463573
20.173630062342617,0.6236465956138626,0.06468797816560157,9.866248050267696
20.1942926604609,0.7286881848393448,0.08703542486481317,9.849630431174651
20.193614232209054,0.7933329897529451,0.0782417111215338,9.861984162886598
20.21435220943544,0.8421037434675531,0.07642217253492718,9.877228505215555
20.213589934634193,0.9677278017035738,0.08398875121491148,9.852754503036982
20.234416159411804,1.0351226119386248,0.07147852333931348,9.854680312867426
20.23357688314796,1.064429769338557,0.08332193965258729,9.85451440203821
20.25448057785652,1.0812510319910023,0.07229229725288511,9.865143947344883
20.253554294923152,1.1203161223716664,0.07715272897988992,9.866596364919747
20.274542671741486,1.1570582227768227,0.07469383302643752,9.856970997151675
20.27353267525841,1.2793633567633407,0.09213496729391199,9.871207157086806
20.294601229966805,1.1851465564924784,0.07860372864849574,9.854040648074765
20.29350802341764,0.8595146960638306,0.08564427919523296,9.854055729234561
20.314673755172542,0.6574251934086727,0.0748617821858517,9.863063879550447
20.31349647447989,0.6415948759378133,0.08401779197265537,9.890197007355892
20.334751382919656,0.6311212399074477,0.0929238551939499,9.844541210197804
20.333484863961207,0.6450267449147546,0.07186745194452653,9.868767442273862
20.354829902014348,0.5017428088524817,0.08567662197698082,9.880074952530641
20.35346393449851,0.3696558504671123,0.08391474314654436,9.868304060877238
20.37489405838284,0.25817003285579576,0.07619511707357682,9.87243042838702
20.37343671344236,0.18399238492291486,0.09742470590269886,9.879100173100499
20.394960948613807,0.05652187332771367,0.08288527104857703,9.85716267337815
20.39340487678373,-0.017049145126975796,0.10054088584148038,9.874667160543044
20.415029659742906,-0.18152136439704147,0.10801183150993524,9.85625853839216
20.41337774775075,-0.3844319200435326,0.09023658040413772,9.877638359043116
20.435101857298847,-0.5035152824859856,0.08768746774950212,9.860804581337511
20.433348673920435,-0.578153717901611,0.09970372819918309,9.871958755587567
20.45517323209715,-0.6583912251799984,0.10433120444092064,9.888668747419324
20.453323287947356,-0.7468393103830341,0.09807673706146743,9.867180770083035
20.475247791277923,-0.80097452230388,0.1012706311843074,9.857885017345547
20.473297414435255,-0.9699680272963559,0.09336795726763293,9.862338725287144
20.49532772488243,-1.008781243491793,0.10344663269114757,9.874956758275749
20.493265602115475,-1.1344477352456013,0.11499766207742848,9.875190448682469
20.51540422306082,-1.206663762656479,0.11688763875339649,9.883470297238624
20.513238844498638,-0.9693120751061558,0.1066511167021752,9.892114758685182
20.53548034957819,-0.6817261573962758,0.11187874474345896,9.868563185158727
20.533201509245565,-0.5428014137468614,0.10212310939364473,9.845394857094785
20.555555909372114,-0.6146303833708626,0.10215491401170138,9.864542259362334
20.553168003411315,-0.7060520968510434,0.1030417329148721,9.884170479079247
20.575633244178736,-0.7121308068305903,0.1065451414512993,9.873376986484217
20.573124422931038,-0.6165748525101765,0.11204602277267683,9.860157483413026
20.595710100780174,-0.4801069130080051,0.10045507654583763,9.867629248772836
20.593089112339037,-0.3530087448134493,0.07780033038715498,9.872155293018565
20.61579298172954,-0.2399156178615723,0.09615810494418382,9.869678627803674
20.61305252800387,-0.17225558261251808,0.08446333115395707,9.862200050322409
20.635877146866985,-0.057834812071324876,0.09191845999196784,9.890406835564232
20.63301684213612,0.08918016324522689,0.09203364916109182,9.865885745316865
20.655973136029562,0.16883717641971221,0.09612085415869051,9.859607405891387
20.652986429842,0.28770849340645577,0.09750758493108037,9.86580328968027
20.67606550847363,0.4657786763476208,0.09285888378460964,9.863548495897525
20.672951153038934,0.6219677328295212,0.07344725670385174,9.861091631495114
20.69615572934493,0.7503716276881203,0.09481595518257481,9.863427690402482
20.69290681293046,0.847304758762722,0.08258337493944591,9.87078998923242
20.716237044579117,0.8607588528763576,0.08116643437719843,9.856857751585594
20.71285501919482,0.9793948731316852,0.07327171580761138,9.871128437167757
20.736328136298333,1.012889957320212,0.0664838396773264,9.871980659730648
20.732807812639923,1.0444841655292962,0.07934846799744487,9.866819604633836
20.756422142980018,1.0760982593406747,0.074975495911399,9.875438975076698
20.75276759011546,1.1543265566216094,0.08536168441160796,9.857102468337786
20.776521247867443,1.195491514052583,0.07758210687069697,9.85514482684924
20.77271891757797,1.2991585479769379,0.06612429579956654,9.863583717867712
20.796612686278657,1.1465880685995975,0.07020610772533954,9.855335294953088
20.79266834864492,0.8201820767239243,0.06494526706098498,9.855410666347392
20.816713149479117,0.6302022208126666,0.08878417907162593,9.868391364302063
20.81260924917014,0.6636516919623571,0.08483758708185803,9.890520644559144
20.836807060826324,0.6529224646959565,0.07440282274893072,9.84973257002073
20.832554404439794,0.654209204567082,0.07732441153724479,9.85458723427936
20.856910091120074,0.5193047158937696,0.08176992495827946,9.864602586922237
20.852494650650574,0.3685082152114218,0.07895936439358563,9.861504130207317
20.877009925533123,0.19643042403846986,0.07752078146832957,9.870887850256281
20.87244180383388,0.11635306667137128,0.08422205745158594,9.87033603573346
20.897126575683163,-0.04748890139354683,0.0895296471084948,9.859826887029532
20.892388162707512,-0.15992512656535535,0.0932154878321564,9.877180805288125
20.917234257330215,-0.343659397526028,0.09835994535879858,9.875395116220723
20.912326231066793,-0.5467558147422558,0.09218531711245857,9.89325891571217
20.93734793497713,-0.6152820702207629,0.09436017648109578,9.87676833179611
20.93226017648266,-0.6659770124896689,0.09272596977760701,9.889579629744938
20.95745018374055,-0.7244174025440331,0.10770258428208151,9.865640676090702
20.952187076988224,-0.7849595713713821,0.09812386553543388,9.871745041353057
20.977569619304983,-0.8729685032209692,0.12062088921050361,9.876075263293393
20.972121604418035,-0.8926590959116415,0.10671209999368066,9.873805735929507
20.997682767427076,-1.0418509541524898,0.09856265170608401,9.855829229394137
20.992045969456548,-1.1538128972814128,0.10863467750448415,9.883278700771626
21.017802316044087,-0.9275608290584142,0.11515391200494694,9.877855137547146
21.011972497512012,-0.629265601800345,0.10173636871479894,9.867292504291145
21.037923767219535,-0.4432403024934183,0.10201656332661271,9.859536674758504
21.03189427681019,-0.43932989485966606,0.09580576473993928,9.868595551884455
21.058049685817995,-0.5151927454637198,0.10159967075982826,9.868745213963496
21.05182154249495,-0.5416768345016909,0.09675458731072185,9.878073400833769
21.07818505918605,-0.47810628062319327,0.10253885206620099,9.878478311683406
21.071741327377797,-0.3328842181997086,0.0753635367805329,9.870032847522854
21.09831423380918,-0.20020383144150114,0.09246563478955946,9.868213891873504
21.091653218706448,-0.12132218911745796,0.08830716117359164,9.864485168843567
21.118448721716916,-0.0432717069679006,0.10153194585890885,9.868293474122197
21.111563535051026,0.013683028687446508,0.09637815866690513,9.87709752272341
21.138586857495245,0.14383357736963961,0.10599609650382588,9.873786414597893
21.13147286021715,0.229443347065258,0.07964074322509254,9.863637145850415
21.158725622621844,0.32507821826970484,0.08688333162460457,9.852381261880346
21.15137695886197,0.4519887373748136,0.09510036976713401,9.873837179874368
21.17887103644874,0.5749057383154645,0.08845691266236973,9.868939338419532
21.171276123240546,0.6396809461086655,0.07922624679648124,9.871725505652197
21.199011079057776,0.627276808007705,0.066801103946859,9.871861208281281
21.191172174926965,0.6396461204810259,0.09144348173431846,9.857344233954898
21.219168798649925,0.6813821151939101,0.08942592407628905,9.86745891330382
21.211067016909855,0.7242241011824891,0.06841200783940952,9.852111139563032
21.23932143689929,0.768696110365643,0.07710184123073713,9.856502136295777
21.230952152945893,0.8063969088259951,0.07912017829670738,9.871239612137822
21.25948496321669,0.7911154344988938,0.08003703283781463,9.860762959482553
21.250842832095778,0.7770899865903955,0.07628404214723658,9.857109850832128
21.279650226304533,0.7879627388423767,0.07845790215023582,9.85886142890334
21.270723271167636,0.8176874941549934,0.07275006859353947,9.867786679784974
21.299819604238262,0.6677791283514369,0.07446107683503098,9.850331634639055
21.29060245868838,0.41507864685241147,0.07892868657325419,9.866893922838049
21.319992283404353,0.24264678290003028,0.08988665485908327,9.875707445009294
21.310464027977677,0.19970225660923785,0.0931161687459004,9.881465821943847
21.340163154668364,0.2924145429670299,0.08086758509112747,9.870036312015547
21.330328275289997,0.26408849607863744,0.10070648543319369,9.857679081774034
21.360346915444282,0.14067925756670221,0.08642044106933236,9.85949343779526
21.35018476650781,0.058932188159375225,0.08703785417033061,9.865761836202804
21.380532960396796,-0.016881458709478585,0.09320333480094771,9.867152911296218
21.37004211126523,-0.09253664727919587,0.08439935364780597,9.860563323506009
21.400738258831606,-0.14620495355230842,0.0867922136971251,9.86119325950019
21.38989595081432,-0.16089012629687274,0.10505750626661106,9.867185403396517
21.420940176387017,-0.22167214787312256,0.08752140857136788,9.877092153103627
21.40974580629604,-0.2703317555509333,0.10214534989825823,9.865944148815618
21.44115985010409,-0.35696899936711246,0.10222052414614725,9.868116965082297
21.429580032400615,-0.4171665025940698,0.08725667470695983,9.885436144714411
21.46136733232717,-0.41286997029295464,0.09321181300953582,9.87850069561711
21.449408853228324,-0.4035835329429276,0.09284096635185254,9.869519241326902
21.481591551692276,-0.5390268937168752,0.10099962974069443,9.863250545080767
21.469222099836564,-0.5582267723394725,0.09474219163958646,9.878680824733404
21.501810671809885,-0.3397292448433739,0.10247383744604376,9.880986317677312
21.48903277366974,-0.22810628819432302,0.09888064879090926,9.854073220804104
21.52204757608654,-0.21869405043838142,0.08175246291569875,9.848367568900771
21.50883149347069,-0.23365049656093456,0.09799277139967175,9.85829094637309
21.542292722542264,-0.19157828048268957,0.09660112391991664,9.859691520171985
21.528630430134314,-0.12246420118833509,0.08449037373480699,9.862263664977156
21.56255160121796,-0.048811938354421,0.09138694563998324,9.8669175169662
21.548417304226543,-0.044065006289840336,0.09677512352933239,9.879635631357147
21.58281648102575,-0.0608154634885681,0.09677055242411796,9.858667747874964
21.568193139523782,-0.02702526818963183,0.08476347150158972,9.879322904582416
21.603091817935972,0.03951046226391849,0.0910790987645359,9.88007118576394
21.58795496559827,0.0975134293074976,0.0887002420744351,9.86016355559955
21.623379617646105,0.13036248329696323,0.0968112537006539,9.870559949856993
21.607713079509953,0.15194940008839555,0.09339768195474356,9.880972957728618
21.643678435584953,0.1965937967354426,0.09149824156688295,9.862128412736716
21.627455350314662,0.24399239499229208,0.08271433910686624,9.867115873741469
21.663990948073614,0.2763207830893448,0.09495385240510268,9.860450188682906
21.647187837970623,0.27604801175482796,0.08364323909475985,9.872987314557427
21.684313333432208,0.3013293065053926,0.08607674346002996,9.877512731039314
21.666899443717753,0.29745643971429153,0.08246493378749863,9.863424558590093
21.704656884372298,0.31920298260809843,0.09466280566816268,9.868146532495343
21.68660750489197,0.3385741923940444,0.0866244757118182,9.866178449147826
21.725013320910044,0.37111193623679817,0.08655710256453786,9.861094261310356
21.706295272829962,0.3231479017427691,0.08170044017218976,9.857044358063115
21.745386161484173,0.26740736047475433,0.0952749790608866,9.866000705722588
21.725962069212564,0.24049111841317072,0.09047970546908932,9.875027929083549
21.765772919851237,0.23316040123433196,0.08373516644389624,9.870614666338605
21.74560784688366,0.2065088273307511,0.09260055565282463,9.868787149319594
21.786177117811718,0.17159758440076672,0.08604638623263557,9.86530038399239
21.76523831898508,0.10600377501417005,0.08951447384275255,9.869307408593931
21.806610660483074,0.048193623211153315,0.09694513276300808,9.87058933430039
21.784849751196862,0.020821301085627245,0.09100353636737475,9.867823624042574
21.827063866372992,0.0030400975961627497,0.10142914247752872,9.86102986658334
21.804435603118403,-0.038562189136301064,0.08613114810238452,9.856485092070612
21.847537732508556,-0.045364954912892434,0.07526592019686605,9.868024507486615
21.82398880382424,-0.038264818196694306,0.09072672615120812,9.860765188855039
21.868032419434655,-0.08315298060370122,0.10095733234624345,9.865297718377992
21.84352344233776,-0.1083938936048235,0.09208985616447149,9.877575577077742
21.88855833227461,-0.06813586616356553,0.10093099993985377,9.875240414085425
21.863021104154548,-0.004237386337376462,0.09858126537656806,9.864978960519837
21.90911922860725,0.06491288031810812,0.08790171560024879,9.866926837808297
21.882489730971443,0.09827218755343471,0.09130036078719544,9.867159603245888
21.92971452069859,0.06851081235202756,0.08850564967725921,9.864063415348415
21.901921817998097,0.06129579334505113,0.08311925726153194,9.886398972476382
21.950344997374113,0.0757299951529892,0.09554415170584535,9.878105150747352
21.921317746273996,0.06946495119092255,0.09637388605862345,9.859420601736321
21.971020244886486,0.08930090714973768,0.092280868940878,9.864592261596306
21.94066766129291,0.0957268493315833,0.09901972238084128,9.882441921705563
21.991735797309698,0.06278328751513872,0.08498937612917278,9.869402444042528
21.959965117344332,0.04088867066123087,0.09079576665341667,9.860435455870846
22.012505572881242,0.048895557172532945,0.08753081826516852,9.868156620809126
21.979211131001406,0.06990829142049619,0.09204029136786178,9.86619263358645
22.033331727009696,0.08099946928362652,0.07961719150270893,9.865565654290704
21.998399982597913,0.06758410923520532,0.08144195500259654,9.869473940672822
22.054222379028342,0.05996355821300014,0.0901968832020203,9.877698268957438
22.017521813422476,0.05602994259661494,0.08895963378653236,9.870524289312357
22.075184007885305,0.05508898587034371,0.08104981611320485,9.865874152031477
22.036570928094225,0.05996078947919523,0.10105964119886143,9.862771359036662
22.096235728390194,0.05314464323215412,0.08593919833489912,9.859391718486275
22.055539262342737,0.057329963724742035,0.08141758110238395,9.875696755475147
22.117370322957818,0.05992104069767789,0.10192250357869836,9.865567803633597
22.074411276774573,0.053819219128702224,0.09390683709953083,9.865209474839856
22.138617669321626,0.07380071573525526,0.08296666052927372,9.874138467015925
22.09317368568378,0.07396373259318996,0.09179192776664978,9.869398783272281
22.159967307222995,0.0673049286078795,0.08639383056055627,9.863728696017846
22.11179395447118,0.0721207950202002,0.09008708559400057,9.871593926589847
22.181456798241122,0.08541586564906951,0.08625887700686545,9.86585318557004
22.130265731019474,0.06597375098346604,0.09395439424370683,9.871095562964644
22.203095201223825,0.0708114503465804,0.08531840332321965,9.876461680368973
22.148566119065492,0.05616118959598265,0.08745144361647453,9.870401793838012
22.22493732571,0.05958228776693161,0.09237138169061539,9.86514422764006
22.166678108214448,0.062163792147972366,0.0888987611508304,9.865254723350832
22.246997649229648,0.06183548522724802,0.09492560748183414,9.862319503023237
22.184547253477696,0.06962230249238346,0.0845512239701215,9.858533097742164
22.269316001289443,0.06358316385367173,0.09298245916885593,9.86580181856234
22.20212223394382,0.05808626955784007,0.08843162510009564,9.864387028762714
22.291945718010947,0.07435872438631923,0.0930729803858084,9.869499904408086
22.21934997065616,0.07512141906928309,0.09448642531908133,9.864739981132292
