Time (s),Acceleration x (m/s^2),Acceleration y (m/s^2),Acceleration z (m/s^2)
28.40614679,0.17738113400000044,0.05822891199999998,9.894424438000001
28.416156790000002,0.15762222299999964,0.039368134000000034,9.908345489999999
28.42613579,0.1606159969999997,0.052989807000000014,9.893975372000002
28.436145790000005,0.17019607499999995,0.06466552700000001,9.914183349999995
28.446124789999995,0.15373031600000014,0.06436614999999998,9.906399536000002
28.456134790000007,0.17348922699999988,0.046553192000000014,9.899513854999999
28.46611379000001,0.1692979429999996,0.052989807000000014,9.906998290999997
28.476123789999992,0.17094451899999952,0.02365081800000003,9.901759185999996
28.48610279,0.17738113400000022,0.03996688799999999,9.905501404
28.496112790000012,0.1649569699999997,0.049546967,9.896669768999999
28.506091790000003,0.18157241800000012,0.047601013,9.903555449999999
28.516101789999993,0.1580712890000002,0.029638366999999992,9.892328795999996
28.526080790000012,0.1695973210000003,0.03817062399999999,9.914632416000003
28.536059790000003,0.28126510600000026,0.04011657699999997,9.879006499999994
28.546069790000008,0.45086242700000023,0.028141478999999983,9.906549225
28.55604878999999,0.5254074100000004,0.02754272500000002,9.870474242999997
28.56605879000001,0.3869453429999997,0.018561401000000012,9.908644867
28.576037790000015,0.12184661900000011,0.03338058500000001,9.895172881999997
28.586047790000002,-0.11630813599999962,0.031284942999999996,9.935588836999996
28.596026789999996,-0.22857467700000034,0.06765930199999999,9.892328796
28.606036790000015,-0.24923172,0.07828720100000001,9.917326813000003
28.61601579,-0.198337555,0.05733078000000003,9.873318328999998
28.626025790000007,-0.27946884200000033,0.05014572099999999,9.881551207999998
28.63600479,-0.343834992,0.05493576100000001,9.907746734999998
28.64601479,-0.28845016499999954,0.07095245399999998,9.922565918000002
28.655993789999997,-0.13172607400000017,0.07409591700000001,9.905202025999998
28.665972790000005,0.07259902999999969,0.065713348,9.898765411000001
28.675982789999992,0.25012985199999965,0.05568420400000005,9.890682219999997
28.685961789999997,0.35401382500000017,0.045954437,9.895023193000004
28.69597179000001,0.41658370999999994,0.04370910600000002,9.895023192999997
28.705951790000007,0.5935157779999999,0.014370117000000009,9.899214477999994
28.715960789999993,0.8414002989999998,0.02724334700000001,9.907746734999996
28.725940790000003,1.0151889040000004,0.026794281000000007,9.883347473000002
28.735949790000003,1.1054512020000002,0.014070739999999995,9.894424437999996
28.745929790000005,1.162332916,0.0034428410000000077,9.886790314
28.755938789999988,1.0713221740000003,0.00523910499999998,9.883197783999998
28.765918790000008,0.7566764830000001,0.03158431999999997,9.858349457000005
28.77592779,0.3689826970000003,0.044607239,9.904303893999996
28.785907789999996,0.12379257200000036,0.04131408699999997,9.927505645999998
28.795886789999987,-0.015118560999999683,0.05403762800000001,9.942773894999995
28.805896790000002,-0.13052856499999999,0.05358856200000001,9.874964905
28.81587579,-0.3661386109999999,0.05927673300000001,9.909992064999997
28.82588579000001,-0.7090754699999998,0.09684860199999999,9.899364165999998
28.835864790000002,-1.1509565730000002,0.104033661,9.899513855
28.845874790000007,-1.4458433529999999,0.086969147,9.923014984000002
28.85585379,-1.2928614809999994,0.09295669600000002,9.924811249
28.865863790000006,-0.8629554750000001,0.09400451700000001,9.959089965999999
28.875842789999997,-0.593815155,0.07918533299999998,9.872120818999996
28.88585279,-0.45999343899999995,0.07828720099999999,9.873318328999998
28.895831790000006,-0.3977229309999997,0.08726852400000001,9.935738524999996
28.905810790000004,-0.2610571289999998,0.050594787999999995,9.929451599000002
28.91582079,0.019758910999999563,0.06197113000000001,9.902657317999997
28.925799789999996,0.4120930480000002,0.047002258000000005,9.907147980000001
28.935809790000004,0.9439370729999993,0.011526031000000006,9.897268523999998
28.94578879,1.3865666199999997,0.019609221999999992,9.870324553999996
28.955798789999996,1.6592994689999991,-0.008981323000000006,9.845176849
28.965777790000004,1.7871336360000003,-0.0022453310000000127,9.892478485000002
28.975787790000005,1.8881735230000003,-0.009879456,9.884694671999997
28.985766790000003,1.9952009579999996,-0.02140548700000002,9.893825684
28.995776789999994,1.8092875670000002,0.00014968899999998235,9.854008483999996
29.005755790000006,1.3904585270000005,0.013172606999999996,9.872719574000001
29.01576579,0.9765692140000004,0.005688170999999976,9.888287200999997
29.02574479000002,0.6283932500000003,0.03427871699999996,9.903405762
29.035723789999988,0.11630813600000045,0.060324554000000016,9.888885955999998
29.04573379000001,-0.2662962340000001,0.047301635999999994,9.910890198000002
29.05571279000001,-0.7481442259999996,0.118553467,9.906549224999996
29.065722789999995,-1.2754975889999993,0.089064789,9.92585907
29.075701789999993,-1.6326548769999993,0.10223739599999998,9.934241638
29.08571179000001,-1.8842816159999998,0.113164673,9.922416229000001
29.095690790000006,-2.1101618959999993,0.106578369,9.911938018999999
29.10570079,-1.729653168,0.117805023,9.961335296999998
29.115680789999995,-1.1617341609999996,0.10358459499999997,9.934241637999998
29.125689789999996,-0.7999365229999993,0.06870712299999997,9.870174866
29.13566979000001,-0.5987548829999998,0.075892181,9.892628173999999
29.145678789999998,-0.446222076,0.09669891399999998,9.876162415000001
29.15565879,-0.1161584469999997,0.06616241500000003,9.949509887999994
29.16563779,0.3417393490000004,0.076341248,9.878856812000002
29.17564442000001,0.8440946959999995,0.023501129000000003,9.938283233999996
29.18562342,1.4172528079999998,-0.015417937999999982,9.890233153999995
29.195633420000004,1.8265017699999997,0.016316071000000026,9.848170623999994
29.205612419999998,1.9383192439999999,-0.013771361999999992,9.877060547000001
29.215622420000006,2.0016375729999996,-0.024099884000000012,9.882748717999998
29.22560142,2.0513342289999996,0.0011975099999999785,9.878856812000002
29.235611419999994,2.054477692,-0.02664459200000001,9.879754943999997
29.245590420000006,1.7128880309999999,-0.018112335000000014,9.856702881000004
29.25560042000001,1.1820918270000005,0.031434631,9.902357940999996
29.265579420000005,0.8397537230000001,0.018561400999999988,9.884544982999998
29.275589419999992,0.5541476439999998,0.032482452000000016,9.894574126999995
29.28556842000001,0.07349716200000038,0.03263214099999999,9.88723938
29.295547420000005,-0.3435356139999994,0.05463638300000001,9.914632415999996
29.305557420000003,-0.7475454709999998,0.10343490599999997,9.931098174999999
29.315536419999997,-1.2346325679999997,0.10717712399999998,9.917925567999998
29.325546420000002,-1.5669415279999992,0.092357941,9.929301910000003
29.335525420000003,-1.8529966739999997,0.10313552900000002,9.927355957
29.345535420000004,-2.107467499,0.096698914,9.926757201999997
29.355514419999988,-1.7847386169999995,0.09894424400000001,9.954000548999998
29.36552442,-1.2458592219999993,0.11076965299999997,9.955198059000002
29.375503420000005,-0.86475174,0.06316864,9.876611480999996
29.38551342,-0.554746399,0.070653076,9.905052338
29.39549242,-0.3947291570000002,0.07409591700000001,9.902058562999995
29.40550242,-0.15328124999999984,0.04535568200000001,9.922416229000001
29.41548142000001,0.2871029659999999,0.051193542,9.893226928999997
29.425460420000007,0.8250842289999999,0.03547622700000003,9.911039885999996
29.435470419999994,1.434616698999999,-0.003891906999999982,9.888287200999997
29.445449420000003,1.813478851,0.0013471979999999987,9.868079224000002
29.455459420000004,1.926942902,-0.022752685999999998,9.849817199999997
29.465438420000005,2.008223877,0.005837859999999992,9.903705139000001
29.475448419999992,2.070644073,0.00868194600000001,9.867779845999996
29.485427420000015,2.0875588989999994,-0.02559677100000003,9.880204010000003
29.49543742000001,1.718576202,-0.014070739999999995,9.867779845999996
29.50541642,1.204245758,0.026045836999999968,9.894723815999999
29.515426419999987,0.8170010380000003,0.025147705000000017,9.906998290999997
29.525406420000003,0.5719606020000002,0.03442840599999999,9.90714798
29.53538542,0.15313156100000005,0.028740234000000003,9.886490935999994
29.545395420000013,-0.25911117599999955,0.043110352,9.898016968
29.55537442,-0.7018904109999992,0.10702743499999999,9.959389342999998
29.565384420000004,-1.2331356809999996,0.08726852399999997,9.94921051
29.575363420000002,-1.6058605959999994,0.08921447800000003,9.924212494
29.58537342,-1.8426681519999997,0.122744751,9.930798797999996
29.595352419999998,-2.0977377319999992,0.11091934199999998,9.939780120999997
29.60536242,-1.7444723509999989,0.11975097699999997,9.954449615
29.61534142,-1.2183164979999992,0.11361373899999999,9.938732299999996
29.62535142,-0.8247848509999995,0.08637039199999999,9.867779846000001
29.63533042000001,-0.6065386960000002,0.071551209,9.913434905999996
29.645340419999997,-0.4049079899999994,0.05777984600000002,9.899962921000004
29.655319420000005,-0.18381774899999992,0.03427871699999999,9.936037902999997
29.665298420000003,0.27722351100000014,0.037122803,9.901160430999994
29.675308419999997,0.8174501039999997,0.04715194699999997,9.889185332999999
29.685287420000005,1.4406042479999996,-0.005688170999999998,9.884245605000004
29.69529742,1.8100360109999996,0.01212478599999999,9.881401519999995
29.705276420000004,1.8754499819999995,-0.052091675,9.843829650999998
29.71528641999999,1.9757414249999998,-0.033230896,9.899813231999998
29.725265420000007,2.0351678470000003,0.004340972999999988,9.884544983
29.735275420000004,2.0538789369999995,-0.02350112899999998,9.892777862999996
29.74525442000001,1.7414785769999994,0.009879455999999969,9.859247589
29.75526441999999,1.2210108949999996,0.031135254000000015,9.880503386999997
29.76524342000001,0.8093669129999997,0.02529739399999998,9.889484711000001
29.775253420000006,0.5659730529999998,0.03622467000000003,9.907896422999999
29.785232420000003,0.18247055100000012,0.05119354199999999,9.864037628
29.795211419999998,-0.25626708999999953,0.07334747299999997,9.894125061
29.805221420000006,-0.6759942630000002,0.10912307699999999,9.924960938
29.815200420000007,-1.2225077819999992,0.10178832999999997,9.925110625999999
29.825210419999994,-1.5986755369999999,0.07873626699999998,9.919123076999998
29.835189419999992,-1.8257533259999996,0.10433303799999998,9.912387084999997
29.845199420000004,-2.0848645019999985,0.09535171499999996,9.926757202000001
29.85517842000001,-1.7815951539999992,0.10133926399999997,9.963430938999998
29.86518842,-1.2478051759999993,0.106877747,9.939331055000004
29.875167420000004,-0.8313711549999997,0.065713348,9.846823424999993
29.885177419999998,-0.5884263609999992,0.05718109100000001,9.904303894000002
29.895156420000017,-0.45191024799999957,0.08741821299999997,9.907447356999997
29.905166420000008,-0.22602996799999955,0.04370910600000001,9.933493194999997
29.915145419999998,0.21704864499999987,0.04610412599999999,9.902357940999996
29.925125420000004,0.7753875729999998,0.029638367,9.913734283
29.935135420000012,1.4527290339999996,-0.010627899000000008,9.888436889999996
29.94511442,1.8407221979999988,-0.007334747000000027,9.879754943999998
29.955124419999994,1.8811381529999993,-0.02409988399999996,9.832453307999996
29.96510342000001,1.9878662109999994,-0.019160155999999998,9.889784088000006
29.975113420000007,2.0493882749999996,-0.0034428409999999856,9.868378600999996
29.98509242000001,2.0529808039999997,-0.015867004,9.879605255000001
29.995102419999988,1.734143828999999,-0.005837859999999959,9.850565642999996
30.005081420000014,1.2352313230000005,0.037871245999999976,9.883796539000002
30.01509142000002,0.7973918149999999,0.038170623999999986,9.921069030999996
30.02507041999999,0.5273533630000004,0.04056564299999996,9.904752959999996
30.035049419999996,0.20297790500000032,0.044607238999999986,9.857301636
30.045059420000012,-0.21600082399999967,0.03682342500000001,9.908195801000002
30.055038420000006,-0.6378236389999998,0.11002121,9.909542998999996
30.065048420000004,-1.1921209719999997,0.09310638399999999,9.930649109
30.075027419999994,-1.5787669369999993,0.070653076,9.945168914999996
30.085037419999995,-1.8146763609999994,0.12139755299999996,9.917476501000001
30.095016420000004,-2.0823197939999996,0.10702743499999999,9.939780120999998
30.10502642000001,-1.8205142209999994,0.106877747,9.953551483000002
30.11500542,-1.2509486389999995,0.11900253299999998,9.959838408999994
30.125015419999993,-0.8396040339999997,0.076640625,9.87197113
30.13499442000001,-0.5978567509999997,0.07529342699999998,9.899214477999996
30.145004420000003,-0.4790039059999997,0.072149963,9.879605254999996
30.15498342,-0.21390518199999994,0.033530273,9.932445373999995
30.164962420000002,0.2116598509999998,0.055684204,9.888736267000002
30.174967420000005,0.70668045,0.05149291999999999,9.925260314999996
30.184946420000003,1.4325210569999995,-0.011376342999999992,9.879006500000001
30.19495641999999,1.8435662839999998,-0.00404159499999998,9.864037627999997
30.204935420000012,1.9443067929999998,-0.01646575900000001,9.835596771000006
30.21494542,1.9434086609999994,-0.028590545999999974,9.864636382999995
30.224924419999997,2.03831131,-0.005987549000000001,9.889784087999997
30.234934419999984,2.0429516599999995,-0.004191283999999995,9.880653075999996
30.244913420000007,1.745669861,-0.014519805999999998,9.857601012999998
30.254923420000004,1.2472064209999993,0.037871246,9.868378600999998
30.26490242000001,0.8340655520000001,0.017064514,9.925260314999997
30.274912419999996,0.6020480349999999,0.045954437,9.908644867000001
30.28489142000001,0.2371069340000003,0.040116576999999994,9.850116577000001
30.29487142000001,-0.19594253499999947,0.035625916,9.900711365
30.304880420000003,-0.6177653499999998,0.11061996499999999,9.917626189999998
30.31486041999999,-1.1886781309999994,0.10238708499999997,9.923913115999996
30.32487042,-1.5664924619999991,0.06810836799999997,9.934391327
30.334849419999998,-1.8016534419999994,0.10822494499999999,9.930349730999996
30.344859420000002,-2.055974578999999,0.11690689099999999,9.908495178
30.35483842,-1.8097366329999995,0.10433303799999999,9.952353972999996
30.36484842,-1.2394226069999992,0.10702743499999999,9.947563934
30.37482742,-0.8382568359999995,0.08068221999999997,9.867031402999997
30.384837420000014,-0.5905220029999997,0.060773620999999986,9.906549224999996
30.39481641999999,-0.4872367859999998,0.08637039199999999,9.907297667999998
30.404826420000006,-0.255518646,0.046553192,9.932445374000002
30.414805420000008,0.1465452580000003,0.05643264800000002,9.899364165999998
30.42478442,0.6810836789999992,0.056432647999999995,9.913734283
30.43479441999999,1.3849200439999998,-0.003442840999999997,9.882149962999998
30.444773420000004,1.8059944149999998,0.005538482999999999,9.885742493
30.454783420000002,1.973196715999999,-0.0004490659999999959,9.865384826999994
30.464762420000007,2.0198995969999993,-0.024548949999999986,9.857900391
30.474772419999994,2.036964111,0.00014968900000002073,9.891280974999999
30.484751420000002,2.0261865229999994,-0.023501128999999996,9.888885955999998
30.494761420000003,1.7386344909999993,-0.013471984999999988,9.855655059999998
30.50474042,1.243464203,0.03293151899999999,9.873168639999998
30.51475041999999,0.867446137,0.01960922199999998,9.90595047
30.524729420000014,0.585582275,0.040266266,9.911189575
30.534739420000008,0.19773880000000024,0.026644592,9.842931518999999
30.54471841999999,-0.2115101619999993,0.048199767999999976,9.896969146999998
30.554697419999997,-0.5944139099999998,0.10074050899999999,9.960586852999997
30.56470742000001,-1.1536509699999993,0.09175918599999999,9.917476501000001
30.57468642,-1.5462844849999993,0.081131287,9.960287475999996
30.58469642,-1.7315991209999995,0.11541000399999997,9.918374634000001
30.59467542,-2.080224152,0.09774673499999999,9.912237395999997
30.604685419999996,-1.862427062999999,0.09684860199999999,9.939929810000002
30.614664420000004,-1.286873931999999,0.09505233799999999,9.933343506
30.624674420000016,-0.8421487429999994,0.06256988500000002,9.886041869999996
30.63465341999999,-0.6077362059999998,0.07379653899999998,9.905351714999995
30.644663420000008,-0.464783478,0.064665527,9.92705658
30.65464242000001,-0.26000930799999944,0.049696655,9.941875762999999
30.664622420000004,0.1351689149999996,0.05164260899999999,9.886191558999998
30.674631419999994,0.6334826659999995,0.047002258000000026,9.891730041999999
30.684611420000007,1.3662089539999989,-0.01212478599999999,9.884095917000002
30.69462042000001,1.819915465999999,0.004640350000000024,9.881551207999996
30.704600420000002,1.973645781999999,-0.02050735499999998,9.860894164999998
30.714609419999988,2.0137623599999994,-0.01182540899999997,9.873468017999997
30.72458942000001,2.043251038,0.016166381999999976,9.88140152
30.734599420000016,2.0231927489999992,-0.023351439999999998,9.886790313999995
30.744578420000003,1.782193909,-0.013621673999999993,9.876761168999998
30.754588419999997,1.2973521419999996,0.005089416999999993,9.878707123
30.76456742000001,0.8788224789999994,0.022902373999999996,9.930499420000002
30.77457742,0.5755531309999999,0.036374358999999995,9.915979613999998
30.78455642000001,0.21839584400000012,0.044158173,9.884994048999998
30.794535419999992,-0.19130218500000012,0.036374359,9.896071013999999
30.804545420000004,-0.5938151549999996,0.10163864099999997,9.933343506000002
30.814524419999998,-1.148860931,0.106578369,9.927655333999999
30.824534420000003,-1.5235317989999995,0.086220703,9.917925568000001
30.834513419999993,-1.7220190429999997,0.109572144,9.918973388999996
30.844523420000005,-2.069296874999999,0.11555969199999998,9.914482727000003
30.854502420000003,-1.870061187999999,0.114212494,9.977202300999995
30.86451242000001,-1.3238470459999994,0.113014984,9.941875762999995
30.87449141999999,-0.8797206119999998,0.081280975,9.876461791999997
30.884501420000003,-0.5866300959999998,0.07993377699999998,9.890682220000004
30.89448042,-0.4754113769999995,0.07843688999999998,9.910590819999996
30.904490420000002,-0.258213043,0.04296066300000001,9.928254089000001
30.914469419999985,0.14370117199999974,0.072000275,9.904004516999997
30.92444842,0.6239025879999996,0.06556365999999998,9.887688446000006
30.934458419999995,1.3379177859999989,-0.01571731599999998,9.895322570999994
30.944437419999993,1.7794995119999992,0.011526031000000011,9.883197783999998
30.954447419999987,1.974244537,-0.03622466999999998,9.861792296999994
30.964426420000006,2.001787262,-0.01736389200000002,9.878707122999998
30.974436420000007,2.0624111939999996,-0.014968871999999992,9.895322570999994
30.984415420000015,2.0730390929999998,-0.017363892,9.873318328999998
30.994425420000002,1.7548008730000002,-0.013022919000000004,9.856253815000002
31.004404420000007,1.2502001949999992,0.02574645999999999,9.883347473000002
31.014414420000005,0.8580157469999998,0.03742217999999999,9.922865295
31.02439342000001,0.5975573729999999,0.036673737000000005,9.923014984
31.034403419999997,0.23605911300000024,0.044158173,9.865983581999997
31.044382419999998,-0.1722917179999999,0.031284943000000016,9.906998291
31.054362420000004,-0.572559357,0.10478210499999997,9.928403777999996
31.06437142,-1.150507506999999,0.10313552899999999,9.926906891000003
31.074351420000003,-1.5266752619999997,0.08831634499999999,9.922416228999998
31.084360419999992,-1.7310003659999997,0.120200043,9.915680237000002
31.094340419999998,-2.044747924999999,0.106578369,9.889784087999999
31.104349420000002,-1.8359321589999993,0.09355544999999998,9.962383117999996
31.114329419999994,-1.3245954899999997,0.087867279,9.933942260999999
31.124338420000004,-0.8996292109999997,0.07723937999999997,9.883946228000001
31.134318420000003,-0.6123765559999995,0.061072997999999996,9.892179107999997
31.144328420000004,-0.4971162419999998,0.080532532,9.919721832000002
31.154307419999988,-0.27782226599999993,0.04939727799999998,9.918674010999998
31.164317420000007,0.11361373899999984,0.06047424299999999,9.918374634000001
31.174291289999992,0.6607260129999997,0.045954436999999994,9.911339263999995
31.18427029000002,1.3635145569999987,0.0019459530000000317,9.908944244
31.19428028999999,1.8003062439999995,0.010478209999999998,9.862989806999998
31.20425929000001,1.9601737979999998,-0.02140548700000002,9.867031403000002
31.214269290000004,2.0239411929999993,-0.0023950200000000007,9.882748717999997
31.224248289999995,2.070793761999999,0.006436615000000008,9.888885956000001
31.23425828999999,2.026934967,-0.01287323,9.884694672
31.24423729000001,1.7732125849999996,0.005837860000000027,9.881850586
31.254247290000006,1.295855254999999,0.007933502000000016,9.909393310999999
31.264226290000003,0.8622070310000004,0.027243347,9.921368407999998
31.27423629,0.5743556209999998,0.016016693000000005,9.926008758999997
31.28421529,0.22123992900000036,0.054486694,9.867330779999998
31.294225290000004,-0.19489471399999977,0.045804749,9.906698913999998
31.304204289999994,-0.5752537539999999,0.085322571,9.893226929000003
31.31418329,-1.1169772339999995,0.110320587,9.923014983999993
31.324193290000004,-1.5058685299999996,0.07439529399999997,9.920170898000004
31.33417229000001,-1.745220794999999,0.10463241600000002,9.921518096999996
31.34418229,-2.1071681209999995,0.11930191,9.894574126999997
31.354161289999997,-1.9235000609999995,0.10074050899999999,9.976603545999994
31.36417128999999,-1.3108241269999998,0.10253677399999998,9.946366425
31.374150290000006,-0.8640032959999995,0.06840774499999999,9.894873504999998
31.384160290000008,-0.595461731,0.06421646100000002,9.872420197000002
31.39413928999999,-0.49277526900000007,0.06256988500000002,9.923464049999996
31.40414929000001,-0.2673440550000003,0.023201752,9.944719849000005
31.41412829000001,0.13965957599999967,0.03622467000000002,9.898166655999999
31.42410829,0.6215075679999995,0.028590546000000005,9.873917084
31.434117289999996,1.3442047119999998,-0.031284942999999954,9.870474242999995
31.44409729000001,1.7841398619999997,0.016166381999999986,9.883796539
31.454106290000006,2.0127145389999996,-0.023650818,9.862540740999997
31.464086290000004,2.0288809199999998,-0.007035369999999997,9.856104125999998
31.47409528999999,2.046993256,0.0001496889999999988,9.863738250999997
31.484075290000003,2.051932982999999,-0.029638367,9.893376617000005
31.494084290000004,1.7771044919999999,-0.009280700999999994,9.853409728999997
31.50406429,1.312321014,0.012274475000000005,9.901908874999998
31.514073289999985,0.875978394,0.023950194999999987,9.901160430999997
31.52405329,0.5586383059999996,0.014070740000000016,9.920619965000002
31.534063290000002,0.2345622250000004,0.06002517699999999,9.864337005999996
31.544042289999997,-0.20267852800000002,0.05792953500000001,9.905351715
31.55402129,-0.5641767879999996,0.102836151,9.920170897999997
31.564031290000003,-1.1301498409999993,0.09295669599999995,9.952204285000002
31.57401029000001,-1.5346087649999995,0.082927551,9.900861052999996
31.58402029000001,-1.7571958919999988,0.12903167699999996,9.943222960999995
31.593999289999996,-2.0812719729999998,0.11091934199999998,9.894574126999997
31.60400929,-1.8965560909999997,0.08098159799999999,9.974208527
31.613988290000005,-1.3254936219999995,0.09011261000000001,9.953551482999996
31.623998290000003,-0.8776249699999995,0.069156189,9.886640625000002
31.633977289999994,-0.5873785400000002,0.067659302,9.872120818999997
31.643987290000005,-0.4917274480000001,0.07484435999999998,9.904303894000003
31.65396629000001,-0.28425888099999985,0.033081207000000015,9.943971404999996
31.663976289999997,0.16765136699999972,0.044158173000000016,9.919123076999998
31.673955289999984,0.6801855470000002,0.049397277999999996,9.923913115999994
31.683934290000003,1.3539344789999994,-0.01856140100000001,9.905202026
31.69394429,1.7887802119999996,0.02574645999999999,9.876162414999994
31.703923290000013,1.9776873779999993,-0.002245331000000002,9.843380585000002
31.71393329,2.035467224,0.0013471979999999904,9.880353699
31.72391229000001,2.0712428279999995,0.020507354999999998,9.868228912000001
31.733922290000002,2.0574714659999995,-0.023650817999999997,9.894723815999999
31.74390129,1.780697021,-0.017214202999999966,9.864037627999997
31.753911289999998,1.295555878,0.032781830000000005,9.894574126999997
31.763890289999996,0.8863069149999995,0.023052063000000015,9.905651093
31.77390029,0.57570282,0.04056564300000001,9.942324828999999
31.783879290000005,0.21285736100000005,0.056432647999999974,9.885892181
31.79388929000001,-0.1679507449999996,0.061222686999999984,9.912087707999994
31.803868289999997,-0.5682183839999997,0.11870315599999996,9.911339264000002
31.813848289999996,-1.1487112429999997,0.08861572299999998,9.931996306999997
31.82385729,-1.5545173649999995,0.07873626699999998,9.913434905999994
31.833837289999998,-1.791624297999999,0.121547241,9.929451598999998
31.843846290000002,-2.1197419739999988,0.10762618999999997,9.905351715000004
31.853826290000008,-1.9034417719999996,0.10957214399999998,9.973160705999994
31.863835290000008,-1.3214520259999996,0.097447357,9.947863311999999
31.873815289999992,-0.8551716610000001,0.07110214199999997,9.891131287
31.88382429000001,-0.595461731,0.086669769,9.876461792
31.89380429,-0.49606841999999984,0.07768844600000001,9.907447356999997
31.90381329000001,-0.2872526549999999,0.05119354200000001,9.942175139999998
31.913793289999997,0.15283218400000023,0.05418731699999999,9.930649108999999
31.923802290000012,0.6954537959999998,0.05882766699999998,9.905651093000001
31.933782290000007,1.3766871639999994,-0.014519805999999984,9.896370391999996
31.94376129,1.8272502139999995,0.003592528999999995,9.891280974999999
31.953771289999995,2.008523254,-0.02155517599999997,9.834548949999999
31.963750290000007,2.0371137999999998,-0.0061372379999999616,9.867630157000002
31.973760289999998,2.0492385859999995,0.00838256800000001,9.859546966999996
31.983739289999992,1.9772383119999999,-0.025447082999999985,9.919272765999999
31.993749289999997,1.720522156,-0.0056881709999999815,9.854906615999996
32.003728290000005,1.322649535999999,0.014370117000000038,9.886490936000001
32.01373829,0.9386979679999997,0.016765137000000024,9.895921325999996
32.02371729,0.6098318479999999,0.03742218000000003,9.914482727000005
32.03372729,0.23471191400000033,0.05523513800000001,9.891580352999993
32.04370629,-0.1815724180000003,0.051792297,9.907597046
32.05371629000001,-0.6143225099999999,0.10328521699999998,9.916728057999997
32.06369529,-1.1695179749999995,0.08816665599999997,9.929601287999997
32.07367428999999,-1.5428416439999995,0.08831634500000002,9.919572143999996
32.08368429000001,-1.7766554259999998,0.12124786399999997,9.939031677
32.093663290000016,-2.086211699999999,0.09400451700000001,9.913584594999996
32.10367329,-1.9208056639999986,0.10642867999999998,9.940079498
32.11365228999999,-1.3726455689999995,0.109871521,9.978250121999997
32.123662290000006,-0.8954379269999999,0.07140151999999998,9.880054321000005
32.13364129000001,-0.6047424319999994,0.07095245399999998,9.899813231999996
32.143651290000015,-0.4764591979999997,0.06331832900000002,9.888137512000002
32.153630289999995,-0.272283783,0.049247589,9.926607512999995
32.16364029000002,0.13277389500000014,0.062869263,9.908794556000002
32.17361929000002,0.6833290099999993,0.06721023599999999,9.918075255999993
32.18360470999999,1.3822256469999996,-0.005987549000000012,9.884844359999997
32.19361371,1.837279357999999,-0.0029937739999999786,9.899663543999997
32.203593710000014,2.0411553959999993,-0.02050735500000001,9.841434631000002
32.21360271000001,2.0576211549999996,-0.01975891099999996,9.887987822999998
32.22358271000001,2.0381616209999995,0.022453308000000005,9.86029541
32.23359170999999,2.0428019709999994,-0.019459534000000004,9.899813231999996
32.24357170999999,1.7821939089999992,-0.0028440859999999445,9.864187317
32.25358071000001,1.3093272399999998,0.02065704300000001,9.903854827999997
32.263560710000014,0.890049133,0.011376343000000032,9.927355957000001
32.27356970999999,0.5763015750000001,0.02200424200000002,9.933642882999996
32.283549709999996,0.22243743899999963,0.05523513799999996,9.899364166
32.293558710000006,-0.20312759400000005,0.038320313000000016,9.882449340999996
32.30353871,-0.5845344539999998,0.075742493,9.926906890999998
32.31351770999999,-1.1464659119999994,0.070802765,9.908794555999997
32.32352771000001,-1.5362553409999997,0.09101074199999998,9.922865295000001
32.33350671000001,-1.7774038699999997,0.10747650200000002,9.912237395999997
32.34351671000001,-2.145937499999999,0.12124786399999997,9.910740509
32.35349570999999,-1.9386186219999995,0.10343490599999997,9.944121093999998
32.363505710000005,-1.3383668519999996,0.098495178,9.970316620000006
32.37348470999999,-0.8518785099999996,0.08666976900000001,9.862540740999995
32.38349471,-0.6054908749999997,0.07334747299999998,9.900561675999999
32.393473709999995,-0.5149291989999999,0.066162415,9.909842376999997
32.40348371000001,-0.24818389899999996,0.04595443699999997,9.941875762999999
32.41346271,0.1692979429999999,0.06242019699999998,9.937684478999998
32.42347271000001,0.6918612669999996,0.050594787999999995,9.897717589999997
32.43345171,1.3686039729999997,-0.011376342999999997,9.876162415000001
32.44343071000001,1.8384768679999999,-0.011226653999999987,9.863289185000001
32.45344071000001,1.9949015809999993,-0.0017962649999999978,9.858648833999998
32.46341971,2.056423645,-0.012274474999999967,9.868528289999999
32.47342970999999,2.0504360959999994,-0.013471984999999983,9.872869262999998
32.483408710000006,2.0568727109999987,-0.025147704999999965,9.887089691000002
32.49341871,1.7718653869999994,0.0019459530000000098,9.868228911999996
32.50339771000001,1.2998968509999997,0.01841171300000001,9.858199768
32.51340771,0.8732839970000003,0.001945952999999988,9.923613738999995
32.52338670999999,0.5965095519999994,0.013621673999999993,9.886191559
32.53339671,0.2281256100000001,0.052989807000000014,9.896669768999997
32.54337571000001,-0.16241226200000008,0.04296066299999998,9.868378600999996
32.553385709999986,-0.6117778019999994,0.08906478899999998,9.938881988999999
32.56336471000001,-1.1755055239999999,0.087867279,9.918823700000003
32.57334471,-1.600022736,0.079484711,9.936786345999996
32.583353710000004,-1.8145266719999995,0.10433303799999999,9.936037903
32.593333709999996,-2.144440613,0.09669891399999997,9.924362182999998
32.60334271000001,-1.9257453919999996,0.096698914,9.957443390000002
32.61332271,-1.3386662289999995,0.12454101600000002,9.953551482999995
32.62333171000001,-0.8698411559999997,0.07499404899999998,9.891131287000002
32.63331170999999,-0.6432124330000002,0.06286926300000001,9.893675995
32.643320710000005,-0.5418731689999997,0.064665527,9.908495177999999
32.65330071000001,-0.2686912540000004,0.06526428199999999,9.934990081999997
32.66330971,0.17887802099999955,0.04161346400000001,9.903854827999998
32.67328971,0.7285350039999998,0.03742218,9.896669768999999
32.68329871000002,1.4175521849999997,-0.008083190999999977,9.887987823
32.69327871,1.8507513429999995,0.018860778999999998,9.86733078
32.70325771,1.9963984679999993,-0.03667373699999997,9.866282959
32.71326770999999,2.0318746949999995,-0.01272354099999999,9.867779845999996
32.723246710000005,2.037113799999999,-0.0016465759999999634,9.888885956000001
32.73325671,2.027533721999999,-0.02230361899999998,9.884844359999999
32.74323571000001,1.7907261659999993,0.000598755000000044,9.887239380000002
32.75324571,1.3383668519999998,0.028291168,9.858499145999996
32.76322471,0.9327104189999995,0.0022453309999999962,9.909692688000003
32.77323471,0.5978567509999994,0.028291168000000002,9.885443114999998
32.78321371000001,0.2174977110000002,0.053738250999999994,9.930200042999994
32.79322370999999,-0.21644988999999937,0.054935760999999986,9.883197783999995
32.80320271,-0.645457764,0.088466034,9.955796814000001
32.81321271000001,-1.2127780149999996,0.09520202600000001,9.898466033999998
32.82319171,-1.568139037999999,0.08307723999999998,9.915380858999999
32.83317070999999,-1.7889299009999997,0.08921447800000003,9.939480742999997
32.843180710000006,-2.156266021999999,0.104782105,9.904752960000003
32.85315971000001,-1.9790345759999994,0.12109817499999997,9.966873778999997
32.86316971,-1.364861754999999,0.11121871999999997,9.950108642999998
32.873148709999995,-0.887654114,0.086220703,9.882000274999996
32.88315871000001,-0.6261479189999998,0.08187972999999998,9.87436615
32.89313771000001,-0.4725672909999999,0.0597258,9.898915099999995
32.903147710000006,-0.2432441710000001,0.045355681999999994,9.916728057999999
32.91312671,0.20821701099999973,0.058228912000000015,9.914632416
32.92313671000001,0.740210724,0.044906615999999996,9.883347473000002
32.93311571,1.3840219119999995,-0.018561400999999988,9.883048095999998
32.94312571000001,1.8196160889999997,0.009430389000000022,9.851014708999996
32.95310470999999,2.0058288569999996,-0.04580474899999997,9.851463775999997
32.96308471,2.0333715819999987,-0.01077758799999997,9.875863037000002
32.97309370999999,2.0633093259999997,-0.006586303999999985,9.888885955999996
32.983073710000006,2.0809725949999995,-0.01871108999999998,9.875264282000002
32.993082709999996,1.7994081119999996,-0.007933501999999962,9.876162414999994
33.00306271,1.3308824159999988,0.025147705000000003,9.870174866000003
33.01307171,0.948278045999999,-0.01257385299999997,9.926757201999996
33.023051710000004,0.6267466739999997,-0.004939727999999989,9.900711364999994
33.033060709999994,0.19369720500000012,0.04056564300000001,9.910590819999996
33.04304071000001,-0.2583627320000005,0.049996032999999995,9.893226929000003
33.05304971,-0.6770420840000001,0.09220825199999999,9.947414245999996
33.06302971000001,-1.1982582089999996,0.08846603399999999,9.931547241
33.073038709999985,-1.58430542,0.09056167599999997,9.922865294999998
33.083018710000005,-1.8130297849999992,0.09415420500000003,9.961934052000005
33.09299770999999,-2.1574635309999985,0.127834168,9.906848601999995
33.10300770999999,-1.9226019289999994,0.08966354399999998,9.979896698
33.112986709999994,-1.3245954899999997,0.11331436199999997,9.940827941999997
33.12299671000001,-0.839604034,0.06676116899999998,9.877509612999999
33.132975710000004,-0.6310876469999999,0.08427474999999998,9.870474242999997
33.142985710000005,-0.476309509,0.071102142,9.952653350999999
33.15296471,-0.21285736100000005,0.052540741,9.951156464000002
33.16297471000001,0.20926483200000023,0.06301895099999999,9.931547241000002
33.17295371,0.7159611509999996,0.027243347,9.902357941
33.18292867000002,1.3819262700000001,-0.02978805499999998,9.899214477999998
33.19290767,1.7595909119999997,0.018262024,9.855056304999996
33.20288667,1.9526893619999992,-0.019459533999999983,9.859996033
33.212896670000006,2.0475920099999994,-0.037721557999999974,9.878258056999998
33.22287567,2.1115090939999988,-0.021854553000000002,9.856553192000003
33.23288567000001,2.103874969,-0.039667510999999996,9.876761168999996
33.242864669999996,1.8432669069999994,-0.00209564199999997,9.864337006000001
33.25287466999999,1.348845061999999,0.03308120700000003,9.868827666999998
33.26285367,0.9267228699999995,0.015867004000000004,9.912985839999996
33.27286366999999,0.591120758,0.016765137000000013,9.90131012
33.28284267,0.17184265099999932,0.04894821199999999,9.890682220000004
33.29285267000001,-0.21719833400000074,0.042960663,9.901160430999996
33.30283167000001,-0.6340814209999998,0.09819580100000001,9.918075256
33.31284166999998,-1.228046265,0.10822494499999999,9.934840392999998
33.322820670000006,-1.6257691960000005,0.10283615099999999,9.918224945000002
33.33280067,-1.8193167109999997,0.118553467,9.960736541999994
33.342809670000015,-2.200274505999999,0.12169692999999995,9.892478485
33.35278966999999,-1.9648141479999994,0.10792556799999997,9.958341521999998
33.36279867000001,-1.3308824159999995,0.11496093799999997,9.961185608
33.37277867000001,-0.8575666809999997,0.061671753000000024,9.896520080999997
33.38278766999999,-0.5956114199999999,0.087118835,9.870923309
33.39276766999999,-0.4590953060000002,0.066012726,9.904902649
33.40277667000001,-0.20118164099999986,0.049247589000000015,9.94921051
33.41275667000001,0.22183868400000004,0.07454498299999998,9.920919341999998
33.42276567,0.7161108399999999,0.026345215000000033,9.918973388999998
33.43274567,1.3322296139999996,0.011226654000000016,9.899513854999997
33.44275467,1.7784516909999983,0.0062869260000000225,9.856253815
33.452734670000005,1.9510427859999995,-0.027393035999999985,9.866582335999997
33.46271367,2.0365150449999994,-0.01347198499999995,9.865684204000004
33.47272367,2.0869601439999985,0.001496887000000003,9.866432647999995
33.48270267000001,2.1282742309999985,-0.03951782200000001,9.898316345000001
33.49271267,1.8294955439999987,-0.0011975099999999674,9.862540740999997
33.502691670000004,1.1807446289999997,0.01945953400000001,9.843081206999996
33.51270167,1.0093510439999998,0.0007484440000000264,9.928254088999994
33.52268066999999,0.6747967529999991,0.026644591999999995,9.890382843
33.53269067000001,0.0914598079999997,0.05493576100000003,9.868528289999999
33.54266967000001,-0.41119491599999963,0.047750702,9.931996307000004
33.55267966999999,-0.8922944639999993,0.111518097,9.937983855999997
33.56265867000001,-1.4139596559999996,0.106877747,9.928553467000006
33.57266867000001,-1.7312997439999998,0.09505233800000001,9.914183349999998
33.58264767,-1.8600320429999995,0.13322296099999997,9.941426696999999
33.59262667,-1.9354751589999988,0.11930190999999994,9.957293700999994
33.60263667000002,-1.4917977909999995,0.10612930299999998,9.971364441
33.61261567,-0.8744815059999996,0.08816665600000002,9.921967162999998
33.622625670000005,-0.42002655000000005,0.06840774499999999,9.910141753999998
33.63260466999999,-0.24054977399999997,0.052989807000000035,9.891430663999998
33.64261467,-0.12094848599999967,0.044756926999999995,9.893975372000003
33.65259367000001,0.14654525800000012,0.059426422000000007,9.936486968999999
33.66260367000001,0.4405339050000001,0.05224136399999998,9.905351714999997
33.67258266999999,0.9017248539999998,0.010927277000000004,9.898765410999998
33.68259267,1.2949571229999994,-0.004939727999999977,9.874964905000002
33.69257167,1.4988331599999998,0.019908599999999995,9.865384826999996
33.702581669999994,1.4443464659999998,0.025746459999999995,9.881700897
33.71256067,1.3898597719999997,-0.003143462999999966,9.893975371999995
33.72254067,1.3374687189999996,0.011226653999999992,9.881401520000002
33.732549670000004,1.3558804319999993,0.013621674000000014,9.904752959999996
33.74252967000001,1.1623329159999993,0.017812958000000014,9.879605254999996
33.75253866999999,0.7155120849999997,0.03562591600000002,9.890233153999997
33.762518670000006,0.2797682189999995,0.04176315299999999,9.907746735
33.77252767,0.020207976999999287,0.07050338700000001,9.906998290999997
33.78250767000001,-0.24908203100000015,0.077688446,9.908046112000001
33.79251666999999,-0.41882904100000024,0.07978408799999998,9.911788329999997
33.80249667000001,-0.5487588499999998,0.07738906900000002,9.931996307000004
33.81250567000001,-0.6822811889999999,0.06017486600000003,9.921667785999997
33.82248567,-0.9014254759999998,0.08771758999999998,9.898765411
33.83249466999999,-0.9279203800000001,0.09026229900000002,9.939630431999994
33.84247467,-0.6818321229999994,0.08756790199999999,9.942025452
33.85245367,-0.4038601689999996,0.056432647999999995,9.890233153999995
33.86246367000001,-0.0812809750000001,0.06466552700000001,9.91059082
33.872442670000005,0.13172607399999964,0.040266266,9.878707123
33.882452670000006,0.15702346800000028,0.05733077999999999,9.896370392000001
33.89243167000001,0.21525237999999985,0.037122803,9.908794556
33.90244167,0.31494506800000033,0.04790039100000001,9.920619964999997
33.91242067,0.47496231099999975,0.05598358199999999,9.867330779999996
33.92243067,0.6364764399999998,0.05179229699999998,9.904603271
33.93240966999999,0.6976991269999995,0.04685257000000001,9.874515838999997
33.94241967000001,0.6804849239999994,0.030386809999999997,9.889933777000001
33.952398670000015,0.5523513790000001,0.03457809400000001,9.884095916999994
33.962408669999995,0.47526168799999957,0.017812957999999993,9.907447357000004
33.97238767,0.3953279109999997,0.024548950000000028,9.910441131999995
33.982366670000005,0.29174331699999967,0.06182144199999998,9.909243621999995
33.99237667,0.147293701,0.045205994,9.884544983
34.00235567000001,0.00134719799999956,0.04026626600000002,9.917177124000004
34.01236567,-0.11705658000000016,0.06017486600000002,9.909842376999995
34.02234467000001,-0.11780502299999952,0.044756927,9.911938018999999
34.03235466999999,0.007035369999999882,0.05568420399999998,9.913285217
34.042333670000005,0.15253280599999947,0.05523513800000001,9.897118835
34.05234367,0.18321899399999966,0.03562591600000002,9.887987822999994
34.062322670000015,0.16675323499999994,0.03787124600000001,9.893675994999999
34.072332669999994,0.12693603499999978,0.0490979,9.916728057999997
34.08231167000002,0.15103591900000027,0.057480469000000006,9.891580353
34.092321670000004,0.16435821500000028,0.0490979,9.917326812999999
34.10230067,0.19848724400000042,0.03502716100000001,9.89307724
34.11228067,0.16645385699999987,0.05029541,9.920919342
34.12228967,0.15358062699999997,0.048948212000000005,9.898016968
34.13226967,0.16480728199999956,0.011975098000000016,9.917177123999997
34.14227867,0.1785786440000004,0.044906616,9.880653075999998
34.15225867,0.14998809800000004,0.046702880999999995,9.908644866999996
34.162267670000006,0.16241226199999984,0.051343230999999996,9.900561676000002
34.172247670000004,0.16136444099999972,0.041463776000000015,9.909842376999999
34.18227121,0.15522720299999956,0.053738251000000015,9.915380859000004
34.19225121,0.1752854919999999,0.04071533200000002,9.906399535999995
