Time (s),Acceleration x (m/s^2),Acceleration y (m/s^2),Acceleration z (m/s^2)
8.326267292,0.15852035499999964,0.046104126000000016,9.888436890000001
8.336247291999998,0.14444961600000017,0.03367996200000003,9.942474518000001
8.346226292000004,0.19235000600000024,0.048648834,9.908046112
8.356236291999998,0.21076171899999982,0.06750961300000001,9.916578369000002
8.366215292000001,0.3378474429999999,0.03308120699999999,9.897268524000003
8.376225292,0.29368926999999995,0.05224136399999999,9.908644866999998
8.386204292,0.147593079,0.031284943,9.889484711000005
8.396214292,-0.11750564600000017,0.079035645,9.928553467000002
8.406193292000003,-0.2549198909999998,0.07140152000000001,9.936936035000008
8.416203292,-0.29144393900000004,0.09699829099999999,9.927505645999998
8.426182292000002,-0.2715353390000003,0.059875488000000025,9.930798798000003
8.436192291999998,-0.022004242000000087,0.042511597,9.939630432
8.446171292000002,0.3243754580000003,0.053289184999999996,9.915979614000005
8.456181292000002,0.6515950010000001,0.03158431999999999,9.920470275999998
8.466160292000003,0.9711804200000004,0.014968872000000006,9.914183350000002
8.476139292,0.9196875000000001,0.0061372380000000015,9.880802765000002
8.486149291999997,0.8976832580000008,0.0029937740000000003,9.916578369000002
8.496128292,0.8123606870000006,0.036374358999999995,9.898915100000002
8.506138292,0.512384491000001,0.017214202999999983,9.902208252000001
8.516117292000002,0.10882369999999966,0.04415817300000002,9.919123077000002
8.526127292000002,-0.4065545649999999,0.07783813500000002,9.915680237000002
8.536106292,-0.956660614,0.06915618900000002,9.933193816999998
8.546116292000002,-1.2545411680000005,0.09610015900000003,9.934241638000001
8.556095292000002,-1.0124945070000007,0.092208252,9.941426697000006
8.566105292,-0.6242019650000002,0.06721023599999999,9.933493195000004
8.576084292,-0.20357665999999996,0.05194198599999998,9.906998291
8.586094292000002,0.1154100039999997,0.043559418,9.913883972
8.596073291999998,0.3912863160000003,0.038919066999999995,9.897867279000003
8.606053291999999,0.8199948120000001,0.048199768,9.901010742000004
8.616062292000002,1.4651531980000003,0.006586304,9.90834549
8.626042292000001,1.7989590450000001,0.032482451999999995,9.889933777000001
8.636051292,1.7639318850000005,-0.028740233999999972,9.870025176999999
8.646031292000002,1.4645544430000004,0.010029143999999972,9.880653076000005
8.656040292000004,0.6981481929999999,0.04685257000000001,9.867031403
8.666020292000002,-0.09834548999999955,0.05029540999999999,9.929900665000003
8.676029291999999,-0.5468128970000001,0.09086105300000001,9.925559692000002
8.686009292000003,-1.002914429,0.079185333,9.954449615000007
8.696018292,-1.595232697,0.10343490599999998,9.884395294
8.705998292000002,-1.81602356,0.09385482800000002,9.990524597000002
8.715977291999994,-1.3323793030000002,0.126486969,9.943522338999998
8.725987292,-0.47870452899999993,0.084723816,9.968670044000007
8.735966292000002,0.08786727899999996,0.04161346400000001,9.906698913999998
8.745976292,0.3939807129999997,0.03951782199999999,9.886790314000004
8.755955292,0.8099656679999999,0.025147705,9.929750977
8.765965292,1.424587555,0.027991790999999995,9.891730042
8.775944291999997,1.852846985,-0.007783812999999987,9.887987823000001
8.785954292000001,1.8697618100000004,-0.0022453310000000244,9.870174866
8.795933292000004,1.7290544129999998,-0.022752685999999973,9.886640625
8.805943292000002,1.1561956789999999,0.042361908000000004,9.882599030000003
8.815922292000002,0.281564484,0.028291168000000002,9.908046112
8.825932292,-0.3251239009999995,0.065863037,9.923613738999999
8.835911291999999,-0.803079987,0.10538085900000001,9.942324829000004
8.845890292000004,-1.2963043210000003,0.103584595,9.948462067000003
8.855900291999998,-1.7356407170000003,0.09684860200000002,9.933343506
8.865879292000002,-1.6082556150000011,0.10433303800000003,9.94576767
8.875889292,-0.9604028320000004,0.086071014,9.934541016000003
8.885868291999998,-0.24040008499999985,0.09415420500000002,9.907447357000006
8.895878292,0.2052232359999999,0.06197112999999999,9.880054321000001
8.905846292000003,0.5239105229999996,0.038919067,9.904453583000002
8.915856291999997,1.0237211610000005,0.020357666,9.897567902
8.925835292000002,1.5730787660000003,0.007634124999999979,9.911638641000005
8.935845292000002,1.8523979190000002,0.012124786000000025,9.910291442999998
8.945824292000003,1.8345849610000002,-0.00972976700000001,9.877958679000006
8.955834291999999,1.57143219,-0.01721420299999998,9.899513855000004
8.965813292000004,0.8279283139999999,0.040266266000000016,9.879605255000005
8.975793291999999,0.03517684899999953,0.013771362000000006,9.919422455
8.985802292,-0.44996429400000015,0.067659302,9.951605530000005
8.995782291999996,-0.9696835330000002,0.08681945800000004,9.934391327
9.005791292,-1.5070660400000002,0.08771759000000001,9.936187592000007
9.015771292000005,-1.7549505620000008,0.08711883500000003,9.971214751999998
9.025780292,-1.4226416020000006,0.11735595700000001,9.956844635000003
9.035760292000003,-0.684825897,0.062420197000000004,9.932295685000001
9.045769291999997,-0.06900649999999978,0.019908600000000005,9.902956696000002
9.055749291999998,0.2880010990000004,0.047301636,9.895621948000002
9.065758292000003,0.6801855470000002,0.02529739399999999,9.908195800999998
9.075738292000002,1.243913269000001,0.02559677100000001,9.908046112
9.085717292000004,1.7202227780000001,-0.005388794000000019,9.900411987000002
9.095727292,1.8465600590000004,0.027842101999999997,9.851164398000002
9.105706292000004,1.7780026250000005,-0.03248245200000001,9.895921325999998
9.115716292000002,1.3681549070000003,0.01826202400000003,9.864935760000005
9.125695292000003,0.5357359310000003,0.03682342499999998,9.899513855
9.135705291999995,-0.19699035600000014,0.04565506000000001,9.901609497
9.145684292000002,-0.6388714600000004,0.09190887500000004,9.950258331000002
9.155694292,-1.1662248230000007,0.08187973000000004,9.90595047
9.165673292,-1.647923126,0.08756790200000004,9.936486969000004
9.175683292000002,-1.7332456970000003,0.10762619,9.964179381999998
9.185662292000004,-1.1811936950000002,0.11316467300000002,9.965825958
9.195672292,-0.42092468299999997,0.07200027499999999,9.907297668
9.205651292,0.08906478900000048,0.034727782999999984,9.889185333000004
9.215630292000002,0.41927810699999984,0.038320313000000016,9.888137512
9.225640292000001,0.8869056700000001,0.02963836699999999,9.915081482000002
9.235619292,1.4437477110000003,0.02020797700000001,9.904154205000001
9.245629292000004,1.8398240660000005,-0.026644592000000026,9.901459808000006
9.255608292,1.81243103,-0.0022453310000000015,9.868677978999997
9.265618292,1.6839981080000004,-0.009729766999999993,9.893675995000002
9.275597291999999,1.081800385,0.01975891100000003,9.871222686999998
9.285607292,0.24683670000000008,0.047301636,9.906399536000007
9.295586292,-0.34817596399999984,0.05777984600000001,9.909692687999998
9.305596292000002,-0.791254578,0.08352630600000002,9.954299927000003
9.315575292000002,-1.334025879,0.06406677200000001,9.942324829
9.325585292000001,-1.7339941410000002,0.10582992600000006,9.943821716000002
9.335564291999999,-1.582808533,0.122595062,9.947114868000002
9.345544292,-0.9231303410000006,0.09535171500000002,9.939780120999998
9.355553292000002,-0.25566833499999975,0.05957611100000001,9.911189575
9.365533292000002,0.2035766600000005,0.040415955,9.894125061000004
9.375542292,0.565074921,0.019908600000000005,9.912087707999996
9.385522292000001,1.1120375060000003,0.02469863900000001,9.897567901999999
9.395531292,1.6319064330000006,-0.0007484439999999839,9.904303894000003
9.405511292000002,1.831591187,0.03143463099999997,9.855505371000003
9.415520292,1.7937199400000003,-0.013771361999999988,9.91059082
9.425500292000004,1.5296690370000006,0.020956421,9.885592803999998
9.435509292000003,0.7679031370000001,0.022453308000000057,9.897118835000002
9.445489291999998,-0.04909789999999986,0.03188369800000002,9.890682220000004
9.455498292,-0.5261558530000002,0.08592132600000002,9.95624588
9.465478292000002,-0.9918374630000001,0.07813751200000003,9.934840393000002
9.475457291999998,-1.5497273250000008,0.089663544,9.953252105999999
9.485467292,-1.7278569030000004,0.088166656,9.976453857000005
9.495446292000004,-1.3440550230000001,0.10059082000000001,9.962083739999999
9.505456292000003,-0.6297404480000003,0.05703140300000001,9.958191833000004
9.515435291999998,-0.04535568199999983,0.049696655000000006,9.912686462000003
9.525445292000006,0.32198043799999987,0.041912842000000006,9.905351715000004
9.535424291999998,0.7273374940000003,0.02095642100000001,9.927206267999997
9.545434292,1.3503419490000002,0.02020797700000001,9.908794556
9.555413291999999,1.7586927800000003,0.0017962650000000141,9.888586577999996
9.565423292,1.807640991,0.023501128999999992,9.851912842000003
9.575402291999998,1.7142352290000005,-0.015268250000000011,9.900561675999999
9.585381292,1.3247451780000001,0.04026626600000001,9.874216461000001
9.595391292000002,0.4935237120000003,0.03622467000000001,9.910291442999998
9.605370292,-0.2059716799999996,0.040565643,9.904154205000001
9.615380291999998,-0.6721023560000006,0.091459808,9.926008759
9.625359292000002,-1.1647279360000002,0.073796539,9.933642882999996
9.635369292000002,-1.6762142940000007,0.08592132600000003,9.914482726999998
9.645348292000003,-1.6720230100000006,0.10403366100000003,9.988878021000005
9.655358292000003,-1.1280541990000001,0.10433303800000003,9.940827942000002
9.665337292,-0.38200561500000035,0.063767395,9.926008758999998
9.675347292000003,0.12304412799999977,0.05388793900000001,9.870324554000003
9.685326291999997,0.44412643400000024,0.032332763999999986,9.908644867000005
9.695336291999997,0.9409432980000001,0.004340972999999999,9.903256073
9.705315292000003,1.5298187260000007,0.012124786000000002,9.909093933000001
9.715294292,1.8256036380000003,-0.020657042999999965,9.858199768000004
9.725304291999999,1.768721924,-0.0008981320000000089,9.901908875000005
9.735284291999998,1.6504678340000003,-0.02544708300000001,9.871821442
9.745293291999998,1.045426025,0.037721558000000016,9.900861053
9.755273291999998,0.17588424699999988,0.028889923000000005,9.897418212999998
9.765282292,-0.3878434749999998,0.06496490499999999,9.938283234000007
9.775262292000004,-0.8361611940000002,0.09729766800000002,9.926158446999999
9.785271292000001,-1.3088781740000002,0.085921326,9.945168915000004
9.795251291999998,-1.7275575260000005,0.093854828,9.927056580000004
9.805260292000003,-1.546134796,0.11735595700000002,9.970017242000004
9.815240291999999,-0.864602051,0.08457412699999999,9.953701171999997
9.825249292,-0.16241226199999984,0.05463638300000001,9.914333038
9.835229291999998,0.29503646900000025,0.055534515000000007,9.898915099999996
9.845208292,0.5942642210000004,0.04760101299999999,9.913285217000002
9.855218291999998,1.1412268070000005,0.01661544799999999,9.904154204999998
9.865197292,1.6485218810000004,-0.010478210000000007,9.908944244000002
9.875207292000002,1.820963287,0.028141478999999997,9.899663543999997
9.885186292,1.7667759700000003,-0.02754272500000002,9.889335022000003
9.895196291999998,1.5138020319999996,0.0031434630000000217,9.896071014
9.905154917000004,0.7297325130000002,0.031434631000000025,9.896819457999998
9.915164917000002,-0.0913101200000008,0.03427871700000003,9.906549224999997
9.925143917000005,-0.5457650760000009,0.09145980800000002,9.934541016000006
9.935153917,-1.024918671,0.08187973000000003,9.939331055
9.945132917,-1.504970398,0.10927276600000001,9.930349730999998
9.955142917000003,-1.698817291,0.10268646200000003,9.993518372000004
9.965121916999998,-1.3076806640000005,0.144599304,9.925559692000004
9.975100916999997,-0.5978567509999998,0.068407745,9.959089966000002
9.985110917000004,-0.007185058999999628,0.069904633,9.886041870000003
9.995089917,0.37272491500000055,0.032632140999999996,9.923763428000003
10.005099919999997,0.7731422420000001,0.03278183000000001,9.898016968000004
10.015078919999997,1.3361215210000001,0.019309845000000003,9.924811248999998
10.02508892,1.740730133,0.011825409000000012,9.886041870000001
10.035067919999998,1.8043478390000005,0.016615448000000015,9.859546967
10.045077920000002,1.7067507929999997,-0.018112335000000014,9.909393311000008
10.055056920000002,1.302890625,0.03802093500000002,9.884994049
10.065066920000001,0.4240681460000001,0.035775604,9.903854828000004
10.07504592,-0.2523751830000001,0.049247589000000015,9.918524323
10.085055920000004,-0.6999444579999998,0.07694000200000001,9.925410004000005
10.09503492,-1.192719727,0.08337661699999999,9.9387323
10.10501392,-1.6839981080000004,0.10762619,9.926158447000002
10.115023919999999,-1.6187338260000004,0.094453583,9.979297942999999
10.12500292,-1.0612930299999999,0.107027435,9.937834167000007
10.13501292,-0.35191818200000025,0.044457550000000026,9.912836150999999
10.144992920000002,0.18082397500000036,0.04340972900000001,9.890233154000004
10.155001920000002,0.47855483999999976,0.028141478999999987,9.886191559
10.164981919999999,0.9511221309999999,0.03353027300000002,9.896370392000003
10.174990919999999,1.4739848330000003,0.013771362000000035,9.883946228000003
10.18497092,1.8526972960000005,-0.014819183000000001,9.903256073
10.194979920000002,1.7789007570000004,-0.010328521999999975,9.877359924
10.204959920000002,1.6295114140000002,-0.024548950000000014,9.908046112000001
10.21493892,1.0020162960000003,0.020507355000000012,9.880503386999997
10.224948920000001,0.13741424600000024,0.030835875999999998,9.931098174999997
10.23492792,-0.43454635600000013,0.060324554000000016,9.942923584000003
10.244937920000002,-0.8750802609999997,0.10014175399999996,9.959239655000001
10.25491692,-1.3786331180000002,0.098195801,9.949958954
10.264926920000004,-1.7284556580000006,0.09370513900000002,9.962233428999998
10.274905920000002,-1.479822693,0.127834168,9.939780121000002
10.284915919999998,-0.8111631780000002,0.08622070300000002,9.921069031000005
10.294894919999999,-0.1368154910000001,0.048648833999999995,9.893975372
10.304904920000002,0.30282028200000005,0.060174866,9.915530548000001
10.314883919999998,0.6168672180000002,0.034578094000000004,9.914033660999996
10.32489392,1.1954141240000002,0.029338988999999968,9.923913116000003
10.334872920000002,1.6661851500000002,0.006137238000000017,9.897118834999997
10.344851920000004,1.7762063600000004,0.031883697999999995,9.905950470000006
10.35486192,1.741927643,-0.000598754999999974,9.897118835000004
10.364840920000004,1.4811698910000004,0.0038919069999999827,9.882898407000006
10.374850919999998,0.6893165590000004,0.03876937899999999,9.909692688
10.384829919999998,-0.1371148680000001,0.02290237400000002,9.928553467000006
10.394839919999999,-0.5878276060000003,0.08517288200000002,9.945468292
10.40481892,-1.059347076,0.086669769,9.922416229000007
10.414828920000003,-1.5654446410000005,0.09145980800000003,9.947414245999996
10.424807920000001,-1.6816030880000008,0.11570938100000001,9.985584869000002
10.43481792,-1.245410156,0.112865295,9.948611755000002
10.444796919999998,-0.5453160100000004,0.04805007900000003,9.926158447000002
10.454806919999996,0.00913101200000044,0.040865021000000015,9.888885956000001
10.464785920000004,0.3824546810000002,0.04101470900000001,9.896220702999997
10.474764920000002,0.8003855900000005,0.025746460000000016,9.91642868
10.484774920000001,1.3756393430000002,0.009430388999999992,9.902507629000002
10.49475392,1.7437239070000004,0.0017962650000000054,9.894574127
10.504763920000002,1.7562977600000003,0.031883697999999995,9.864486693999998
10.51474292,1.705104218,-0.035625916,9.921218719000006
10.524752920000003,1.2510983280000005,0.008831634999999978,9.859397278000001
10.534732919999996,0.345331879,0.03308120699999999,9.910291443000002
10.544741920000002,-0.3248245240000003,0.051193542000000015,9.922715607
10.55472192,-0.7526348880000002,0.12139755300000002,9.959838409
10.56473092,-1.2325369259999999,0.07828720100000001,9.952952728000003
10.57471092,-1.7015116880000005,0.092657318,9.945468291999997
10.584719920000001,-1.6058605960000005,0.12678634600000002,9.96911911
10.59469992,-1.019230499,0.10193801899999998,9.956994324000002
10.604678919999998,-0.3158432009999998,0.04251159699999999,9.924960938000003
10.614688920000004,0.18726058999999978,0.05568420400000001,9.900262299000001
10.624667920000006,0.5150788880000003,0.03667373699999999,9.904154205000001
10.63467792,1.0096504210000001,0.025596771000000015,9.907746735000002
10.644656920000003,1.542093201,0.017363891999999978,9.902807007000005
10.65466692,1.817221069,-0.011226653999999982,9.895771636999998
10.664645920000002,1.7772541809999998,-0.003592529000000003,9.896370392000001
10.674655919999998,1.614542542,-0.017962646000000006,9.871821442
10.68463492,0.8702902219999997,0.039068756,9.91044113200001
10.694644920000004,-0.03802093499999976,0.04370910599999999,9.923613738999997
10.704623920000001,-0.5730084230000003,0.065713348,9.954748993000004
10.71463392,-0.9988728329999998,0.10897338900000002,9.946665802
10.72461292,-1.426832886,0.086220703,9.953850861
10.734591919999996,-1.46964386,0.08996292099999999,9.974956970000001
10.744601920000003,-1.0083032230000004,0.100441132,9.931547241
10.754580920000002,-0.3571572879999998,0.033380585,9.915829926000002
10.764590920000002,0.15926879900000016,0.026195526000000004,9.920170898000004
10.774569920000001,0.4650828549999999,0.036673737000000005,9.909243622000002
10.784579920000002,0.6942562870000003,0.02140548699999999,9.912536774
10.794558919999998,0.9753717040000004,0.02230361900000002,9.910890198000004
10.804568920000003,1.1659254459999995,0.0008981319999999859,9.906698914000003
10.814547919999999,1.140029297,0.048648834000000016,9.860445099
10.824557920000002,0.9996212770000005,0.002694397000000017,9.934091949
10.834536920000001,0.7936495969999993,0.045355682000000036,9.899962921000002
10.844546919999999,0.3604504400000004,0.051492920000000005,9.934091949000004
10.854525919999999,-0.15941848800000022,0.03622466999999998,9.908644867000001
10.864504920000003,-0.44906616200000044,0.06616241500000002,9.935588837
10.874514919999998,-0.6894662480000002,0.08711883499999999,9.942025452
10.884493920000004,-0.7119195559999997,0.05224136399999999,9.939181366000005
10.894503920000002,-0.36763549800000006,0.07963439899999998,9.917775878999999
10.904475580000002,-0.09909393299999995,0.06436614999999998,9.880503387000005
10.914485580000001,0.08083190900000034,0.012124785999999985,9.905052338
10.924464580000004,0.29862899799999976,0.05927673299999999,9.910141754000007
10.934474579999998,0.42586441000000025,0.038470001000000004,9.920769652999999
10.94445458,0.5101391600000004,0.025147704999999985,9.917775879000004
10.954463579999999,0.5457650760000005,0.04505630500000002,9.916578369
10.964443580000001,0.4010160830000002,0.06107299800000001,9.902657318000005
10.97445258,0.24384292600000013,-0.011376343000000011,9.959389343
10.984432580000002,0.20552261400000005,0.03802093500000002,9.921967163000001
10.99441158,0.16630416900000006,0.063917084,9.924212494
11.004421579999997,0.07738906899999987,0.03038681000000001,9.917626190000002
11.01440058,0.0981958009999993,0.05837860099999999,9.927655334000002
11.02441058,0.14145584099999894,0.04026626600000002,9.903555450000002
