Time (s),Acceleration x (m/s^2),Acceleration y (m/s^2),Acceleration z (m/s^2)
18.510943500000003,0.1389111330000001,0.04071533199999998,9.886490936
18.520923499999988,0.1507365419999995,0.049397278,9.921368408000005
18.530932499999967,0.1661544799999999,0.04505630500000002,9.898166655999999
18.54091249999998,0.17663269000000062,0.04296066299999999,9.924362182999996
18.55092149999999,0.16630416900000036,0.04146377599999997,9.882449340999997
18.560901500000003,0.17348922699999958,0.049996032999999995,9.911339263999999
18.570910499999993,0.1583706669999994,0.041912842,9.902657318000005
18.58089049999998,0.16450790399999998,0.052391052000000014,9.913734283000002
18.590899499999985,0.1612147520000004,0.059576110999999994,9.910890197999997
18.600879499999994,0.15822097800000037,0.06466552699999997,9.923164672999995
18.610858499999992,0.15881973299999994,0.05104385400000003,9.917476501
18.620868499999997,0.14804214500000004,0.037122802999999996,9.899214478000001
18.630847499999977,0.15582595800000054,0.06062393199999999,9.926457824999998
18.640857499999996,0.21465362600000026,0.06990463299999997,9.920470275999994
18.65083649999999,0.36209701500000013,0.03891906699999999,9.928703156
18.6608465,0.5075944519999999,0.039817200000000004,9.902507629
18.670825499999992,0.5725593569999999,0.05777984600000001,9.900861053000002
18.680835499999976,0.5161267090000003,0.05598358199999999,9.896819457999996
18.690806749999986,0.35551071199999945,0.036374359,9.931397551999993
18.700816749999984,0.24533981300000007,0.04415817299999997,9.903106384
18.71079575,0.2897973629999997,0.06601272600000001,9.927505646
18.720805749999997,0.3387455750000006,0.06107299799999995,9.876611481000001
18.73078474999999,0.2697390749999999,0.05328918500000004,9.913135528999995
18.740763750000003,0.08891509999999962,0.04236190799999998,9.914183349999997
18.75077374999998,-0.05568420400000041,0.044158173,9.932744751000001
18.760752750000012,-0.13980926500000038,0.052840118000000026,9.919422454999996
18.770762750000003,-0.19773879999999955,0.057480469,9.908644867000003
18.780741749999994,-0.24713607800000015,0.048050078999999996,9.896819457999996
18.790751749999995,-0.2754272460000006,0.07409591699999998,9.919123076999995
18.800730749999992,-0.18651214600000013,0.06376739500000002,9.914333038
18.810740750000004,-0.14519805900000043,0.03757186900000001,9.917925568000001
18.82071974999999,-0.2085163879999995,0.049546966999999976,9.892478485
18.83072974999998,-0.29488678000000046,0.049097900000000014,9.932595061999997
18.84070874999999,-0.3778143310000006,0.07738906899999996,9.917177123999998
18.850718749999984,-0.31584320100000085,0.071850586,9.924062805
18.860697750000003,-0.191302185,0.058079224,9.929152222000004
18.870676749999994,-0.13397140499999996,0.07798782299999997,9.899513855000004
18.880686749999978,-0.1471440130000008,0.059127045,9.920320587
18.890666749999983,-0.24444168100000074,0.05688171399999998,9.90595047
18.90067574999999,-0.22318588300000017,0.05837860099999998,9.939480743000003
18.91065574999999,-0.09370513899999997,0.05388793899999999,9.907746735
18.920664750000007,0.014968872000000091,0.029788055000000004,9.889335022000004
18.930644749999985,0.11660751299999954,0.043409729,9.87780899
18.940653749999996,0.17543518100000025,0.04131408699999998,9.927954711999993
18.950633749999987,0.19459533700000023,0.06646179199999998,9.892927551
18.960642749999987,0.2954855349999997,0.039368134,9.923613739000004
18.970622749999993,0.38365219099999953,0.038619690000000026,9.906848602000002
18.98063174999998,0.5236111449999995,0.04939727800000002,9.919123076999997
18.990611749999985,0.6939569090000005,0.03278183,9.904004517
19.000590749999997,0.8021818540000009,0.013921050999999978,9.898915100000002
19.010600749999995,0.7732919309999998,0.04221221900000002,9.863738251000006
19.02057974999999,0.833915862999999,0.006735991999999999,9.923464050000002
19.030589749999972,0.9075627139999998,0.027393036000000013,9.915231170999997
19.040568749999984,1.1353889470000005,0.017363892,9.915231170999999
19.050578749999985,1.2319381710000004,0.011376342999999985,9.896071014
19.060557749999994,1.3037887569999995,0.0068856810000000185,9.909093933000001
19.07056775,1.202150116,0.04101470900000002,9.896370392000003
19.08054674999998,0.9496252439999994,0.034727783000000054,9.874815215999998
19.090556749999987,0.7866142270000005,0.03293151900000001,9.924960938
19.100535749999988,0.7848179630000002,0.029039611999999975,9.910740508999998
19.11054575,0.7668553160000003,0.0050894170000000205,9.897567902
19.120524749999998,0.8033793639999998,0.03113525399999997,9.874964905000004
19.13050374999999,0.6855743410000001,0.02395019499999999,9.894873505
19.140513750000004,0.5797444150000004,0.04101470899999998,9.912536774
19.150492749999987,0.4135899350000001,0.044906615999999976,9.918224945000006
19.16050274999999,0.3291654970000003,0.04116439800000003,9.900711365000001
19.170481749999993,0.2796185300000001,0.07065307599999998,9.915680237000002
19.180491749999987,0.12558883700000026,0.05284011800000004,9.913285217000002
19.19047075,-0.034578094000000115,0.03323089599999998,9.941726073999998
19.20048074999998,-0.17363891600000014,0.077089691,9.881850586
19.210459749999995,-0.3534150699999997,0.06721023600000002,9.929451599000002
19.220469749999992,-0.4975653079999995,0.07873626699999997,9.922865295000001
19.23044874999999,-0.6783892819999994,0.085172882,9.928703156000001
19.240458749999995,-0.8249345400000002,0.08008346599999999,9.913434905999997
19.250437749999985,-0.9363029480000001,0.08622070299999998,9.904603270999996
19.260416749999987,-1.0526110839999991,0.10523117099999997,9.889484711000003
19.270426749999995,-1.2030482479999989,0.07200027499999999,9.920021210000002
19.28040574999999,-1.4166540529999994,0.11091934200000002,9.918823699999997
19.290415749999987,-1.3641133119999995,0.07244934099999997,9.930349730999994
19.300395749999996,-1.0431806950000004,0.07155120899999998,9.944121093999998
19.31040475,-0.8259823609999998,0.07439529400000001,9.879006500000003
19.32038474999999,-0.8108637999999996,0.08038284299999998,9.905351715000004
19.330393749999974,-0.9033714290000002,0.08262817399999997,9.929152222
19.340373749999994,-1.0102491760000005,0.06945556599999995,9.936786345999998
19.350382749999994,-1.0193801880000004,0.10074050899999996,9.921069031
19.360362750000007,-0.8631051640000004,0.09774673499999999,9.939780121000004
19.370371750000004,-0.6274951169999999,0.05763015699999997,9.882449341000003
19.380351749999978,-0.446222076,0.03472778299999997,9.930349730999998
19.390330749999986,-0.3022215269999997,0.09011261,9.908794556
19.40034074999999,-0.19339782700000008,0.06152206400000001,9.908495178
19.410319750000003,-0.03772155800000034,0.034278717000000035,9.926457825000002
19.420329750000004,0.15822097799999998,0.059426421999999986,9.935439148000002
19.430308749999984,0.28515701299999957,0.03397934,9.868827666999996
19.440318749999996,0.44577301000000036,0.05463638299999997,9.894424437999996
19.45029775,0.687370606,0.03203338600000001,9.894873505000001
19.460307749999995,0.9508227539999993,0.023950194999999997,9.900112610000006
19.470286749999996,1.1130853269999998,0.029039612000000034,9.887838135000004
19.480296749999987,1.4519805909999992,-0.009131012000000003,9.905202025999998
19.490275749999988,1.7253121950000003,-0.012573852999999989,9.876461791999997
19.50028574999999,1.7908758540000005,-0.024848328000000065,9.88484436
19.51026474999998,1.9190093989999992,-0.0038919070000000364,9.896220703000001
19.52024375,1.9278410339999992,-0.015118561000000004,9.891430664
19.53025374999998,2.007325745,-0.012424163999999988,9.928104400999999
19.540232749999983,2.1418959050000006,-0.009580078000000006,9.882898406999999
19.55024274999998,2.190245361000001,-0.015118561000000039,9.877659301999998
19.560221749999997,1.9429595949999998,0.022602996999999972,9.881551208000003
19.570231749999998,1.6742683409999994,0.001197510000000008,9.908046112
19.580210749999967,1.5979270940000005,0.01137634299999997,9.870923309
19.59022074999999,1.4964381409999998,0.008681945999999982,9.916578369
19.600199749999994,1.4018348690000009,0.0022453309999999906,9.868528289999997
19.610209749999992,1.1970606990000003,0.036224669999999994,9.903555450000004
19.620188749999986,0.9392967219999998,0.0046403500000000274,9.882748718
19.630198749999973,0.7987390140000006,0.029338988999999982,9.899962920999997
19.64017774999998,0.6942562869999999,0.01571731599999999,9.910291442999997
19.650156749999994,0.5213658139999998,0.029039611999999982,9.930050353999999
19.66016675,0.2972817990000004,0.037571869,9.880653076
19.67014575,0.06481521599999984,0.08786727899999999,9.906549225
19.680155749999972,-0.23860382099999955,-0.0029937739999999972,9.887987822999994
19.69012911999999,-0.38425094600000037,0.07319778399999997,9.934541015999995
19.70013811999999,-0.6456074520000007,0.105829926,9.929002532999998
19.71011813000001,-0.9723779299999998,0.06735992400000003,9.921667786000004
19.72012711999999,-1.0404862979999998,0.079484711,9.953701172000004
19.73010712999998,-1.2852273559999996,0.09205856299999997,9.939480742999995
19.74011611999999,-1.754950562,0.08637039199999998,9.914333037999995
19.750096119999984,-2.0484901429999995,0.10867401100000001,9.958940277
19.76010513,-2.1914428709999996,0.150586853,9.955198059
19.77008512,-2.3076013179999997,0.12229568499999996,9.942025452000005
19.78009411999999,-2.3231689450000004,0.11121872000000005,9.963880005
19.790074119999986,-1.777104492000001,0.10103988699999998,9.949659575999995
19.800053119999994,-1.4326707459999994,0.111817474,9.931996306999999
19.81006311999999,-1.3879138179999997,0.09610015899999999,9.886191559000006
19.82004213,-1.3936019899999994,0.10178832999999997,9.929451599000002
19.830052129999977,-1.34914444,0.11496093799999998,9.912836150999993
19.84003111999999,-1.2343331910000008,0.06930587799999995,9.956844634999987
19.850041119999997,-0.8623567200000004,0.096998291,9.931547241000004
19.86002012,-0.6300398250000002,0.10328521699999996,9.942474518
19.870030120000006,-0.6033952329999993,0.07634124799999997,9.897118834999999
19.88000911999998,-0.446222076,0.077987823,9.891131286999995
19.89001911999999,-0.20178039599999975,0.01960922199999997,9.982591094999998
19.89999812,-0.009430389000000336,0.08173004200000002,9.910141754000001
19.91000812,0.0946032709999995,0.03847000100000001,9.856702881000002
19.919987129999996,0.354313202,0.015567627,9.933642883000001
19.929966119999982,0.5984555049999996,0.028440857000000038,9.853709106
19.93997611999998,0.8448431400000003,0.022902373999999993,9.903854827999998
19.94995511999999,1.0819500730000002,0.003143462999999989,9.938732300000002
19.959965120000003,1.279239806999999,0.01227447499999998,9.894873505
19.969944119999994,1.5142510989999995,-0.024249573000000028,9.911189575000002
19.979954119999977,1.7308506769999994,-0.02439926100000002,9.889185332999991
19.989933119999982,2.085463257,0.008681946000000006,9.909992064999997
19.999943119999994,2.277813263,-0.018411713,9.870474243
20.009922130000007,2.413131865999999,-0.05044509899999995,9.872569885000003
20.019932130000004,2.4128324889999986,-0.03308120699999998,9.862391052000001
20.029911119999984,2.2764660639999996,0.004041595000000018,9.887239379999995
20.03992111999999,2.295177155,-0.023800507000000016,9.886191558999998
20.049900119999986,2.1377046200000005,-0.03367996200000004,9.901160431
20.059879120000005,1.8937120059999994,0.009580077999999995,9.867929535000002
20.069889119999996,1.6822018429999992,-0.006286925999999961,9.895023193
20.07986811999998,1.622176666,0.013921050999999985,9.914033661
20.089878119999987,1.4733860780000005,-0.03098556499999997,9.881850586000002
20.099858119999993,1.1936178590000004,0.029338988999999996,9.891730042
20.109867129999998,0.9282197569999999,0.062270508,9.920619965
20.11984712,0.8622070309999993,0.02948867799999998,9.962383118000004
20.129856119999985,0.7689509579999997,0.02215393099999999,9.884694672
20.139836119999988,0.64590683,0.03113525399999997,9.874066771999999
20.149845119999988,0.46164001499999985,0.032482451999999995,9.946815490999995
20.159825120000008,0.14938934300000006,0.024848328000000006,9.886640625
20.169834119999997,-0.012424163999999946,0.09595047,9.898466034
20.17981412999998,-0.22797592199999978,0.010627898999999986,9.944420471000004
20.189793119999987,-0.4312532040000001,0.05508544899999999,9.889933776999996
20.199803119999995,-0.668809204,0.09460327099999997,9.924212494
20.209782119999996,-0.9425898739999998,0.07679031400000003,9.908495178000003
20.219792119999994,-1.1100915530000006,0.10163864099999999,9.952353973000003
20.229771119999977,-1.2105326839999997,0.09909393300000002,9.908046112
20.23978111999999,-1.6332536319999997,0.11406280500000002,9.904004516999999
20.24976012,-2.0194505309999995,0.11900253299999997,9.940827942000004
20.259770119999985,-2.200424194,0.11990066500000002,9.964329071000009
20.269749129999997,-2.2948777769999995,0.14025833099999996,9.931397552000002
20.279759129999984,-2.384541321,0.10792556800000001,9.972262573000002
20.28973813,-1.8532960509999998,0.13277389499999998,9.949210509999997
20.29974812999999,-1.3977932740000005,0.11106903099999998,9.910291443
20.30972712000001,-1.3287867739999994,0.094004517,9.885143738000002
20.319706120000003,-1.2982502749999993,0.080981598,9.948611755
20.329716119999997,-1.3295352169999999,0.08921447800000001,9.931247864
20.339695119999995,-1.3962963870000002,0.06795867899999995,9.941127319
20.349705119999992,-1.0612930300000003,0.10223739599999997,9.926906891000002
20.359684129999998,-0.702788544,0.098495178,9.921667786
20.369694129999992,-0.5836363220000003,0.050894165000000005,9.906998291000003
20.379673129999993,-0.46433441199999986,0.06691085799999999,9.917626189999998
20.38968312999999,-0.25312362699999996,0.034129027999999985,9.935289458999998
20.399662119999988,-0.0619711299999997,0.08232879599999998,9.894723816
20.409672120000003,0.07394622799999974,0.056732025,9.912536774000001
20.41965111999999,0.3614982610000001,0.011076964999999996,9.904902649
20.429661119999995,0.6056405639999995,0.03188369800000001,9.892029418999996
20.439640119999996,0.7903564450000001,0.0010478209999999944,9.871372375
20.449619129999984,1.0943742370000002,-0.0011975100000000554,9.889634399
20.459629119999995,1.2735516359999999,0.03278183000000001,9.891131287000006
20.469608130000005,1.4302757259999999,-0.016765136999999965,9.900561675999999
20.47961812999998,1.6757652279999993,-0.028590546000000015,9.892777863
20.48959711999998,2.00313446,-0.017812957999999945,9.918973388999996
20.499607120000004,2.2897883610000003,-0.013921051000000044,9.883646851
20.509587120000003,2.4105871579999993,-0.033829650999999974,9.872420197000002
20.51959612,2.411634978999998,-0.030237121999999995,9.874515839000006
20.52957611999998,2.2938299559999984,0.0047900390000000116,9.903854827999998
20.539585119999984,2.2873933409999996,-0.03158431999999996,9.903256072999998
20.54956512999999,2.1510269170000003,-0.04355941800000003,9.880204010000003
20.55957412,1.8564395139999996,0.024698638999999998,9.871372375
20.56955412,1.5956817629999993,-0.00898132299999996,9.907447357000002
20.579563129999986,1.590292969,0.025447082999999978,9.929152221999997
20.58954312,1.5594570919999997,-0.059426421999999986,9.893975371999998
20.599522119999992,1.3356724549999996,0.024548950000000003,9.862091675
20.609532119999997,1.032103729,0.007185059000000013,9.932145996000001
20.619511120000006,0.8937913509999993,0.047301636,9.951156464000006
20.629521119999993,0.6668632509999999,0.03457809400000002,9.928403777999998
20.639500129999984,0.5891748050000005,0.026943969999999987,9.890083466
20.649510129999996,0.4939727779999998,0.019309844999999996,9.926607512999999
20.65948911999999,0.22258712800000027,0.023650818000000007,9.895771637
20.66949911999999,0.02080673200000014,0.07214996300000001,9.940827942000004
20.67947811999998,-0.19863693199999938,0.03667373700000001,9.983788605000003
20.68947661999999,-0.38020935100000025,0.023201752000000003,9.887987823000005
20.69945561999999,-0.5836363219999996,0.10927276600000002,9.942773895000002
20.709465619999992,-0.8860075379999995,0.07529342700000001,9.910441131999999
20.719444619999994,-1.0877879329999995,0.07948471099999999,9.932295685
20.729423619999984,-1.1807446289999997,0.09175918599999998,9.921368408000001
20.739433619999986,-1.5881973270000003,0.09789642299999997,9.919572144
20.74941262999998,-2.0305274960000004,0.09385482800000002,9.919123076999995
20.75942262999999,-2.1942869570000005,0.11780502300000001,9.981842651000008
20.769401619999996,-2.282154235999998,0.15238311799999998,9.940079498000005
20.77941161999999,-2.4128324889999995,0.12858261099999996,9.962981873
20.789390619999985,-1.8985020449999996,0.13157638599999996,9.971514130000001
20.799400619999993,-1.4151571660000002,0.09445358300000001,9.911339264
20.809379619999998,-1.310674438,0.081580353,9.890532531999995
20.81938961999999,-1.314865722999999,0.08996292099999997,9.924362183000005
20.829368619999975,-1.2750485229999997,0.11406280500000002,9.971663818
20.839378619999984,-1.3654605100000003,0.07843688999999997,9.945318604000002
20.849357629999997,-1.2063414000000003,0.07873626699999998,9.912836150999995
20.85933661999999,-0.8325686650000002,0.11750564600000003,9.919422455000001
20.869346619999995,-0.5517526249999999,0.08232879600000001,9.915680236999997
20.879325619999992,-0.45759841900000037,0.06301895100000003,9.896220702999997
20.889335619999983,-0.25147705099999984,0.023650818000000004,9.944719848999998
20.899315619999992,-0.04266128499999985,0.079335022,9.881251831
20.90932461999999,0.058827667000000125,0.042062531,9.916129303
20.919304629999996,0.25866210899999975,0.017812958000000007,9.929002532999998
20.929313619999977,0.5233117679999998,0.056732024999999964,9.910141753999998
20.939293619999987,0.7861651609999997,0.03188369800000001,9.917177123999997
20.949302629999995,0.9913883969999998,0.02260299699999999,9.904303894000002
20.959282619999993,1.2380754089999995,0.049996032999999995,9.879754944000004
20.969291620000007,1.4385086059999996,-0.017663268999999985,9.918075256000005
20.979271619999984,1.663041686999999,-0.021106109999999977,9.905202026
20.989250619999986,2.074835358,-0.014220427999999997,9.916728057999999
20.999260619999998,2.367476807,-0.01212478600000002,9.885892180999997
21.009239629999993,2.419568480999999,-0.030686188000000003,9.857750702
21.01924963,2.3508613589999983,-0.03547622699999994,9.878856812000002
21.029228619999994,2.2406904599999984,0.0044906620000000645,9.883646851000002
21.03923861999999,2.3623873899999994,-0.014669494999999979,9.931547241
21.049217619999997,2.222278748,-0.03128494300000001,9.868528290000002
21.059227619999994,1.8450631709999998,0.01930984499999999,9.885592804000005
21.069206620000003,1.6161891170000002,0.0008981320000000225,9.905950470000004
21.07921661999998,1.6045133969999992,0.009729767000000025,9.931397551999998
21.089195619999995,1.5552658080000006,-0.029488678000000008,9.899513855000004
21.09920562,1.3970448300000002,0.024249572999999996,9.840835876
21.10918462999999,1.0720706179999997,0.023950195000000004,9.940528564
21.11919462999999,0.8801696779999997,0.030686188000000017,9.970466309000003
21.12917361999998,0.7119195559999996,0.016465759000000017,9.907597045999996
21.13915262,0.6568341060000001,0.01901046799999997,9.916278992000006
21.14916262,0.5083428960000003,0.02754272500000001,9.931846618999998
21.15914162,0.20402572600000007,0.040715332,9.906698914
21.16915162,0.028141479,0.06676116899999997,9.954748993000004
21.179130619999988,-0.18501525899999985,0.033380584999999977,9.944570159999994
21.189140619999993,-0.39652542099999993,0.036224669999999994,9.883197783999998
21.199119629999988,-0.6469546509999997,0.126037903,9.940827941999999
21.209129629999985,-0.8896000669999997,0.06930587800000002,9.926308135999998
21.219108630000004,-1.0279124449999995,0.094154205,9.925859069999996
21.229118629999977,-1.2015513609999997,0.073946228,9.936486968999995
21.239097619999992,-1.654958496,0.11780502300000001,9.903106384
21.24910761999999,-2.0535795590000006,0.11570938100000001,9.936337280000002
21.25908661999999,-2.200424193999999,0.118703156,9.962532805999997
21.26906562,-2.254461822999999,0.12064910899999999,9.943821716000004
21.27907561999998,-2.3510110469999996,0.117655335,9.949060821999993
21.289054629999985,-1.8878741460000006,0.11615844699999997,9.973609772
21.299064629999993,-1.4323713680000003,0.11047027599999996,9.900861052999998
21.30904461999999,-1.3335768130000003,0.07723937999999997,9.905501403999997
21.31905363,-1.3347743230000002,0.085023193,9.912536774000005
21.32903361999998,-1.3075309749999995,0.11226654100000001,9.977202300999998
21.33904261999998,-1.4037808230000002,0.066312103,9.948911133000001
21.349022619999985,-1.1970606990000001,0.07274871800000002,9.923014984000002
21.359031619999996,-0.8119116210000004,0.10597961400000001,9.915530548
21.36901161999999,-0.6164181519999999,0.075892181,9.894873505000003
21.379020619999988,-0.48559021,0.08547226,9.907746735
21.389000629999998,-0.2734812930000005,0.018561400999999995,9.961634673999999
21.39897961999998,-0.035625916000000174,0.08876541099999999,9.892179108
21.408989619999996,0.13561798099999986,0.047151947000000013,9.890083466000002
21.418968619999994,0.32916549699999936,0.02050735500000002,9.925110626
21.428978619999988,0.5733077999999999,0.03757186900000001,9.875413970999999
21.438957619999993,0.9699829099999999,0.036074982000000005,9.919123076999998
21.448967619999994,0.9810598760000008,0.02559677099999996,9.857900390999996
21.458946619999995,1.0563533019999993,0.058228912,9.917775879000004
21.468956620000004,1.3684542849999988,-0.002544707999999997,9.917626190000005
21.478935629999985,1.6696279909999996,-0.023501128999999978,9.900112609999999
21.488945629999993,2.0981867980000004,0.008083191000000009,9.886790314
21.498924619999986,2.4138803099999997,-0.0022453310000000322,9.913734282999998
21.508934619999987,2.4763005069999986,-0.031734008999999966,9.862840118
21.51891361999999,2.370320891999999,-0.027393035999999985,9.895472259999998
21.528923619999986,2.2698797609999994,-0.00014968899999998376,9.874216460999994
21.538902619999988,2.246977386000001,-0.030087432999999993,9.903106383999996
21.54888161999998,2.190694427,-0.03427871700000007,9.865235137999997
21.55889162,1.9258950809999995,0.008382567999999996,9.867630157
21.568870630000017,1.6338523859999998,-0.009580077999999964,9.923913116
21.578880629999986,1.5705340579999998,0.009580078000000023,9.934690703999996
21.588859619999994,1.5323634340000012,-0.014370116999999986,9.935139770999998
21.598869619999988,1.4073733520000002,0.0035925289999999828,9.835746460000001
21.60884862,1.0918295289999997,0.016166381999999997,9.934241638
21.61885862,0.8669970699999999,0.042212219000000016,9.948911132999998
21.628837619999977,0.6744973759999999,0.018411712999999996,9.934990081999999
21.638847619999996,0.6316864010000001,0.018262023999999977,9.895921326000003
21.648826619999987,0.500559082,0.040565642999999985,9.917027435
21.658836619999988,0.22094055200000012,0.033979340000000004,9.896071014000006
21.668815629999994,0.044008484000000556,0.100141754,9.952653350999999
21.678794619999977,-0.2621049500000001,0.01332229600000001,9.927805022999992
21.688804619999992,-0.44038421600000016,0.030087433,9.921518097
21.698781629999978,-0.6414161680000002,0.123493195,9.909542999000003
21.708791629999997,-0.9189390559999993,0.07753875699999999,9.904453583
21.71877162,-1.0213261409999992,0.08397537199999998,9.902956696
21.72878061999998,-1.2148736569999998,0.08846603399999997,9.931996306999997
21.73876061999998,-1.6660354610000006,0.12334350599999998,9.912536774
21.74876961999999,-2.106569366,0.10433303800000002,9.922416229000001
21.75874961999999,-2.225721587999999,0.150287476,9.958042145
21.768758619999996,-2.2815554809999985,0.12484039299999997,9.933493195
21.778738629999978,-2.3499632260000003,0.123792572,9.949509887999994
21.78874762,-1.8666183470000008,0.138312378,9.970915374999997
21.79872761999999,-1.4319223020000007,0.10822494499999996,9.900262299
21.80870661999999,-1.3328283689999998,0.083376617,9.888287201000004
21.818716620000004,-1.308429108,0.08277786299999997,9.950258331
21.82869561999999,-1.2720547490000005,0.114362183,9.943971404999992
21.83870561999999,-1.3867163089999999,0.09535171499999999,9.95624588
21.848684619999997,-1.2196636959999998,0.08113128700000001,9.915530548
21.85869461999999,-0.8415499880000002,0.10508148200000002,9.970765685999998
21.868673630000007,-0.6268963620000001,0.07634124800000001,9.908046111999997
21.878683629999976,-0.45774810800000015,0.066910858,9.919422454999994
21.888662619999987,-0.23276596100000022,0.009580078000000016,9.967173157
21.898672619999974,0.014519805999999946,0.09565109299999998,9.898615722999999
21.908651619999983,0.12828323400000005,0.03083587599999999,9.891430664000003
21.91866162000001,0.32153137199999937,0.006286925999999978,9.915979613999998
21.928640619999992,0.5602848819999992,0.035925292999999976,9.860744475999992
21.938650619999986,0.8403524779999999,0.02005828899999999,9.901459808000002
21.948629619999984,0.9943821720000009,0.041314086999999985,9.889035644999996
21.958608629999993,1.5558645629999996,0.03667373700000003,9.884994048999998
21.968618629999995,1.407373352,-0.013621674000000002,9.894574127000002
21.978597619999984,1.5323634339999996,-0.00823288000000001,9.924960937999996
21.98860762999998,2.0803738400000005,0.018411712999999972,9.934091949
21.998586619999987,2.3571482849999996,0.0005987550000000218,9.882748718
22.008596619999995,2.441872101,-0.04146377600000001,9.882748718000009
22.018575620000007,2.460732879999999,-0.024998015999999963,9.871671753
22.02858561999999,2.307751006999999,-0.008831635000000025,9.910141753999994
22.038564619999992,2.346969452000001,-0.04490661599999997,9.899813232
22.048574619999993,2.2162911989999996,-0.021854552999999968,9.895921325999998
22.05855362999999,1.8537451169999999,0.00987945599999998,9.880054320999996
22.06856363,1.5991246029999997,0.007484436000000046,9.900711365000001
22.07854262999998,1.5244299319999992,0.013022919000000039,9.905202025999992
22.08852162,1.5310162350000003,-0.033380585000000004,9.930499419999999
22.098531619999985,1.436113586,0.015867004000000014,9.836345214999998
22.10851062,1.1159294129999997,0.005688170999999998,9.912387085000004
22.118520619999998,0.8547225949999997,0.05418731700000002,9.960137786999999
22.128500629999984,0.7616162109999995,0.03338058500000002,9.920470275999993
22.13850961999999,0.621208191,0.026195525999999997,9.911039886000003
22.148489629999993,0.4408332829999995,0.03727249099999999,9.889484710999993
22.15849862,0.20237914999999995,0.008532257000000005,9.919871520999997
22.168478619999995,-0.0007484439999992801,0.09595046999999998,9.916278991999997
22.17848762999998,-0.27213409399999994,-0.0046403499999999815,9.944270781999998
22.188467619999994,-0.4689747620000001,0.05538482699999998,9.893526306000002
22.19847661999999,-0.6891668700000001,0.12573852500000002,9.910590819999994
22.208456619999993,-0.9818083189999997,0.07155120899999999,9.903854828
22.21846562,-1.0939251709999993,0.07559280399999997,9.949060821999998
22.228445619999984,-1.2512480160000001,0.05508544900000002,9.908794555999995
22.238424629999987,-1.726809082,0.10493179299999997,9.906100159
22.24843462999998,-2.082170105,0.103584595,9.964927825999997
22.258413619999992,-2.2236259460000003,0.13936019900000002,9.968969421
22.268423620000004,-2.3279589839999986,0.11900253299999998,9.940827942
22.27840261999998,-2.396965484999999,0.11406280499999999,9.959688720999996
22.288412619999985,-1.8753002930000011,0.12618759199999996,9.979747009000006
22.298391619999986,-1.4293775940000002,0.11391311700000001,9.909992065000004
22.308401619999994,-1.3400134280000005,0.10014175399999994,9.906698914000005
22.318380620000006,-1.2768447880000005,0.084574127,9.946216736000002
22.328390619999976,-1.3042378230000007,0.10029144300000002,9.939780120999998
22.33836963,-1.3533357239999995,0.07409591700000001,9.944869537
22.348379629999997,-1.1600875850000003,0.09071136499999996,9.920320586999999
22.358358620000004,-0.8228388980000003,0.09490264899999999,9.911938019000003
22.368337619999995,-0.6057902530000001,0.080083466,9.934241637999998
22.37834761999997,-0.44517425500000013,0.086819458,9.891879729999998
22.388326619999997,-0.20043319700000012,-0.010478209999999988,9.995164947999998
22.398336619999995,0.027393036000000037,0.09580078099999995,9.87765930199999
22.408315619999996,0.10133926399999997,0.03248245200000001,9.884395294
22.41832562,0.3370989989999993,0.03727249099999999,9.907297668
22.42830462999998,0.6114784240000001,0.028740234000000003,9.868677978999997
22.43831463,0.8894503779999998,0.012573852999999984,9.888287201000002
22.448293619999983,1.131796417,0.02080673200000001,9.934091948999999
22.458303619999985,1.2741503909999998,0.037272491,9.906549225000001
22.468282619999993,1.4925462339999993,-0.025596771000000018,9.899364165999998
22.478292619999994,1.773511962999999,-0.04550537099999999,9.926308135999998
22.488271619999995,2.1544697570000007,0.03442840600000001,9.868977356
22.498250619999983,2.3186782839999998,-0.012723541000000007,9.891580353000002
22.508260619999998,2.4050486759999994,-0.05089416499999997,9.861642609000002
22.518240620000004,2.380050658999999,-0.022902373999999944,9.900861053000003
22.528249629999987,2.3583457949999995,-0.03353027300000001,9.877808989999995
22.53822961999999,2.4325914,-0.046104125999999995,9.927954712000002
22.54823862,2.225422211,-0.014519805999999994,9.864486693999993
22.558218619999995,1.885479126,0.008681946000000006,9.89771759
22.568227619999988,1.6425343319999994,0.008232879999999986,9.900112610000003
22.578207619999983,1.4856605529999998,0.009430388999999992,9.914333037999999
22.588216619999987,1.4991325380000002,-0.017663269000000013,9.913135529000002
22.598196629999983,1.3853691100000003,0.03981719999999998,9.849817200000002
22.608205619999985,1.075663147,0.014070739999999998,9.92286529500001
22.618185619999995,0.8771759029999998,0.038470001,9.953551482999996
22.628194629999985,0.7473957829999996,0.05134323100000002,9.922565917999998
22.638174619999994,0.6188131710000004,0.025447083000000016,9.894274749999997
22.648153619999984,0.3968247989999996,0.049996032999999995,9.902807007000002
22.658163619999996,0.10568023699999997,0.048499146,9.861941986
22.668142620000005,-0.057779845999999746,0.089513855,9.919572144
22.67815261999998,-0.24953109700000006,-0.00523910499999999,9.945767670000002
22.688131629999994,-0.49457153299999984,0.086819458,9.906399535999993
22.698133119999998,-0.7583230589999997,0.11091934199999996,9.911189575000003
22.70811211999999,-1.0003697199999995,0.058977356,9.928553467000006
22.718122120000004,-1.1181747439999987,0.096399536,9.939780121
22.728101119999998,-1.3344749449999993,0.095651093,9.950258330999999
22.73811111999999,-1.7991087339999996,0.10657836899999995,9.915231171
22.748090129999998,-2.078727264,0.11271560699999998,9.937834166999995
22.75810013,-2.2132974240000003,0.12259506200000002,9.946216736000006
22.76807913,-2.3978636169999996,0.144449616,9.947863312000008
22.778058119999976,-2.4496559139999996,0.142952728,9.960736542
22.788068120000002,-1.8552420040000002,0.13082794199999997,9.956694946
22.79804712,-1.3816268920000008,0.10882370000000001,9.929601287999999
22.808057119999997,-1.226848755,0.11541000399999995,9.891730042000002
22.818036119999988,-1.2308903500000001,0.11286529499999999,9.933044128
22.828046119999982,-1.232536926,0.12124786400000001,9.951156463999999
22.83802512999998,-1.304387512,0.06706054699999993,9.942025452000001
22.84803513,-1.1343411250000008,0.086071014,9.89187973
22.85801412999999,-0.8315208440000009,0.08173004200000004,9.949210510000006
22.868024130000002,-0.5694158940000004,0.076191559,9.914782104000006
22.87800311999999,-0.4221221919999997,0.05284011800000001,9.886490935999994
22.888013119999993,-0.18426681500000028,0.024698639,9.966574402000004
22.897992119999987,-0.012573853000000084,0.098495178,9.882149963
22.908002119999992,0.12259506199999969,0.011376343000000006,9.880503387000005
22.91798112,0.37796401999999907,0.02110611,9.960586853
22.927961129999982,0.5990542600000001,0.02933898899999999,9.874515838999995
22.93797011999999,0.9201365659999997,0.02963836699999998,9.914033661
22.94795011999999,1.2196636960000002,0.039667510999999996,9.930798797999998
22.95795912999999,1.207838287,0.024848327999999975,9.874216461000005
22.967939120000004,1.519939269999999,-0.02649490400000002,9.927505646000004
22.977948119999983,1.9408639529999991,-0.04176315299999996,9.915081482000002
22.98792811999999,2.2968237300000003,0.015417938000000029,9.891131287
22.997937119999992,2.3885829160000003,-0.03233276399999999,9.858199768
23.007917119999988,2.404000853999999,-0.03472778299999998,9.898915100000004
23.017926120000006,2.3541545099999985,0.00583786000000003,9.860594788
23.027906129999987,2.326013031,-0.04700225799999997,9.892029418999995
23.037915119999994,2.464325409,-0.033081207,9.892029419000004
23.047895119999993,2.195783844,-0.021106110000000018,9.880802764999999
23.057874120000005,1.8732046509999996,0.024399260999999978,9.884095917000009
23.06788412000001,1.5962805179999997,-0.004340972999999985,9.920170898000002
23.07786311999998,1.5096107479999992,0.011675719999999988,9.911339263999997
23.087873119999983,1.50003067,-0.021255797999999985,9.933792572000005
23.09785212,1.3735437009999998,0.011076965,9.832153931000004
23.107862119999993,0.9728269960000003,0.037122802999999996,9.926158447
23.117841130000002,0.8258326719999999,0.02963836699999998,9.930200042999996
23.127851129999975,0.7174580379999994,0.04400848400000001,9.918224945
23.13783011999999,0.5054988099999997,0.02170486500000001,9.919272766000006
23.147840120000005,0.37571868900000016,0.043709106,9.905351715000004
23.157819119999996,0.149239655,0.025297394000000004,9.899513855000006
23.167829120000004,-0.014669494999999705,0.08577163699999997,9.890682220000004
23.177808119999995,-0.3234773250000001,0.021255798000000024,9.945168914999998
23.18781811999999,-0.504900055,0.07813751199999999,9.910141754000005
23.197797120000004,-0.828078002999999,0.076640625,9.93992981
23.207776129999992,-1.082099762,0.07005432099999999,9.891430664000003
23.21778613,-1.1141331479999996,0.09699829100000001,9.959838409000005
23.227765119999972,-1.3576766969999992,0.11301498400000001,9.941127319
23.237775119999977,-1.8330880740000004,0.13831237799999999,9.935588837000003
23.24775412,-2.1028271480000003,0.10089019799999999,9.967023467999997
23.257764119999994,-2.2149440000000005,0.14669494599999996,9.955497437000007
23.267743120000006,-2.3514601139999995,0.11990066499999996,9.922865295
23.277753119999986,-2.369273071,0.11466156000000001,9.961934051999997
23.28773211999999,-1.7872833249999998,0.12768447899999993,9.982142029000002
23.297742120000002,-1.3350737000000004,0.10074050899999999,9.890831909
23.307721129999997,-1.2534933470000003,0.10553054800000002,9.893226929000006
23.31773113,-1.2258009339999991,0.09265731799999999,9.930948486000004
23.327710119999978,-1.280437317,0.12813354500000002,9.961934051999991
23.33772011999999,-1.3964460750000003,0.07065307599999997,9.918374634
23.34769912,-1.1859837340000001,0.10403366100000001,9.936187591999998
23.357679119999993,-0.7649093630000003,0.11301498399999997,9.944121094000003
23.36768812000001,-0.528999939,0.06795867900000004,9.919123076999998
23.377668129999975,-0.3616479490000002,0.075293427,9.877808989999995
23.38767711999998,-0.18681152300000023,0.026494904000000003,9.974358214999997
23.39765712,0.00778381300000029,0.105380859,9.875863036999998
23.40766612999999,0.17603393599999922,0.03263214100000002,9.937235413000007
23.41764612,0.4537065129999994,0.03936813400000002,9.981543274000003
23.427655129999977,0.6869215389999996,0.019758911000000014,9.882599029999994
23.437635119999992,0.9232800289999998,0.011675720000000006,9.894873505
23.447644119999993,1.168021088,0.03861968999999998,9.912985839999994
23.45762412,1.3602214049999997,-0.003742218000000035,9.884844360000006
23.46763312000001,1.6506175229999993,-0.035326538000000005,9.892777863000001
23.477613129999977,1.8950592040000012,-0.023650818000000025,9.890532532
23.48759212999999,2.2255718990000015,0.0005987549999999861,9.875863037
23.497602129999994,2.373464354999999,-0.02140548700000001,9.903405762000006
23.507581119999998,2.3999592589999987,-0.053887939000000024,9.865235138000006
23.517591120000006,2.384541320999999,-0.01302291899999998,9.88259903
23.52757011999998,2.3993605039999992,-0.01032852199999998,9.888885956
23.53758011999999,2.4942631530000003,-0.029189300999999983,9.924811249000005
23.547559119999995,2.173330536,-0.0068856810000000185,9.823921050999997
23.557569119999982,1.8085391239999997,0.016016692999999978,9.896370392000003
23.56754813,1.5718812559999993,0.025596771,9.886041870000001
23.577558119999985,1.4412030029999998,0.01811233499999997,9.94337265
23.58753712999999,1.4322216800000005,-0.04400848400000001,9.900711365
23.597547130000006,1.3781840520000008,0.004041594999999973,9.861492919999998
23.607526119999996,1.0650352480000003,0.037571869,9.927206268000006
23.617536119999997,0.8093669129999995,0.03966751099999999,9.893975371999998
23.627515119999977,0.6468049619999999,0.039817200000000004,9.926308135999998
23.637494119999996,0.5165757750000001,0.03218307499999998,9.900262298999996
23.647504119999997,0.32437545799999984,0.030386810000000007,9.891131287
23.65748311999999,0.1193019100000006,0.04430786099999999,9.861941986000001
23.667493120000003,-0.07649093599999988,0.09654922499999999,9.917177123999998
23.677472129999988,-0.3507206729999998,0.010328522000000012,9.907447356999995
23.68748212999998,-0.5119354250000001,0.08173004200000002,9.942624207
23.697452749999997,-0.8126600650000001,0.087268524,9.948462066999996
23.70746274999999,-1.0844947809999999,0.08711883500000003,9.92421249400001
23.71744175000001,-1.0759625240000001,0.09984237699999994,9.928553467000002
23.727451749999982,-1.4105168149999991,0.09056167600000001,9.937834166999997
23.737430749999987,-1.9149678039999993,0.110320587,9.916728057999999
23.74744074999999,-2.1064196779999986,0.11690689100000001,9.971963196
23.75741975,-2.2516177369999997,0.11810440099999996,9.942324829000007
23.767399750000006,-2.3923251340000005,0.109272766,9.909093933
23.777408749999978,-2.3719674679999994,0.136665802,9.953850860999992
23.787388749999987,-1.7860858149999999,0.10268646200000002,9.955647124999997
23.797397749999995,-1.3275892640000004,0.09505233799999996,9.901010741999997
23.80737775,-1.19930603,0.07963439899999998,9.887688446000002
23.817386750000008,-1.2268487549999998,0.08008346599999999,9.932295684999998
23.82736674999999,-1.2979508969999998,0.11451187100000002,9.945318603999997
23.83737575,-1.4202465820000003,0.07379653899999998,9.920170897999999
23.84735575,-1.165326691,0.07888595599999998,9.921667785999997
23.857364749999995,-0.7698490910000003,0.07619155899999999,9.940528564000003
23.867344750000008,-0.548160095,0.06466552700000001,9.889634398999998
23.877353749999994,-0.3540138249999997,0.04281097400000003,9.897717590000001
23.887333749999993,-0.1598675540000002,0.013471985000000011,9.927355957000001
23.897342749999993,0.02874023399999952,0.08427474999999998,9.907297668
23.907322749999995,0.1960922239999999,0.006586303999999952,9.900411987
23.91730175,0.44936553999999945,0.041763153,9.957443389999998
23.927311749999983,0.6884184269999998,0.032332763999999986,9.870923309000004
23.93729074999998,0.9327104190000001,0.012424163999999962,9.890532532000002
23.94730075,1.201401672,0.03861968999999995,9.913285217
23.957279749999998,1.3251942440000002,0.011825409000000007,9.890682220000002
23.967289749999992,1.578766936999999,-0.02155517599999999,9.886341248
23.977268749999993,1.354383544999999,-0.003143462999999989,9.850266265999998
23.987278749999994,2.715802459999999,-0.0031434629999999714,9.993368683000003
23.997257750000006,2.7577153020000007,-0.038769379,9.796827393
24.00726774999999,2.3834935,-0.046104126000000044,9.865534515000004
24.01724675000001,2.2631437680000004,0.006586304000000018,9.879605255
24.027256749999985,2.276466064,0.007783813000000017,9.929601288000002
24.03723574999999,2.496807861,-0.041613463999999996,9.887389069
24.04724574999999,2.1909938050000006,-0.021555176000000037,9.874366149999998
24.057224749999996,1.8145266720000002,0.004939728000000025,9.857750702000004
24.06720375000001,1.5810122679999996,-0.009729766999999988,9.929750977000001
24.07721374999998,1.4455439759999986,0.01901046800000001,9.900711365000003
24.087192749999986,1.4115646359999998,-0.03188369799999999,9.916578368999998
24.097202750000005,1.300944672,0.027842101999999973,9.834698639
24.107181749999988,0.9843530269999999,0.0019459529999999873,9.912087708000001
24.117191750000007,0.8173004149999997,0.032332764000000014,9.876012725999999
24.127170749999973,0.7755372619999995,0.03143463100000002,9.938582610999998
24.137180749999985,0.5343887330000002,0.015717315999999985,9.881102141999998
24.147159750000004,0.2948867800000002,0.03353027299999998,9.879605255
24.157169749999994,0.1079255680000002,0.040865020999999994,9.913285217000002
24.16714875000001,-0.06691085800000013,0.089813232,9.92705658
24.177158749999972,-0.3180885319999994,-0.023501128999999996,9.929002532999998
24.187137749999984,-0.5366340640000001,0.10268646199999998,9.907447356999999
24.197117749999993,-0.8559201050000002,0.11286529499999999,9.969568175999997
24.207126749999997,-1.063238983,0.06256988500000003,9.892029419000004
24.21710675000001,-1.1289523319999994,0.08158035299999997,9.942025452000003
24.22711574999998,-1.3949491879999987,0.104931793,9.910141754000001
24.23709574999999,-1.8663189699999994,0.11720626799999999,9.939331054999998
24.247104750000005,-2.123334503,0.12469070399999999,9.929900665
24.25708474999999,-2.3619383240000005,0.150137787,9.958940277000004
24.267093750000008,-2.4197181700000003,0.11376342799999999,9.924362183000001
24.277073749999985,-2.2957759090000005,0.13052856500000004,9.949659576000002
24.287082749999993,-1.7552499389999998,0.10373428299999995,9.959239655
24.297062750000002,-1.2769944760000003,0.08547226000000001,9.908495177999999
24.30707174999999,-1.2034973140000005,0.07933502199999999,9.899962921
24.317051749999997,-1.2687615969999995,0.07858657799999998,9.916278992000002
24.32706074999999,-1.3756393429999991,0.136665802,9.963730315999996
24.337040749999993,-1.3820759579999995,0.07454498299999998,9.936936035000004
24.347019749999994,-1.1579919430000003,0.08427475000000001,9.905202026
24.357029749999995,-0.7330256650000004,0.088316345,9.950408020000001
24.36700875,-0.5004093929999999,0.05254074100000002,9.904752959999998
24.377018749999984,-0.27946884200000033,0.04954696699999999,9.897268524000001
24.38699774999998,-0.09160949699999969,0.024998016000000012,9.962981873000002
24.397007750000004,0.04610412599999989,0.096998291,9.880952453999999
24.40698675,0.16839981099999995,0.020207976999999967,9.945767670000004
24.416996750000006,0.4728666689999995,0.03338058500000002,9.952503661999996
24.42697574999999,0.7388635249999993,0.02993774400000001,9.915380859000003
24.43698574999999,0.9231303410000006,0.01137634300000001,9.896071014000002
24.446964749999996,1.2195140079999998,0.03068618799999994,9.926158446999997
24.45697475,1.3536351009999996,0.006885680999999977,9.874366150000004
24.46695375000001,1.5877482599999992,-0.02050735499999999,9.902058562999999
24.47696374999999,1.9287391659999993,-0.002544708000000015,9.878557433999996
24.48694275,2.233505402,-0.005538482999999993,9.895023192999998
24.49692174999999,2.3837928769999985,-0.03457809400000001,9.858050078999998
24.50693175,2.4153771969999998,-0.025447082999999985,9.877210236000007
24.516910750000005,2.393522644,-0.012124785999999978,9.892777863000001
24.526920749999977,2.3631358339999995,-0.014968871999999996,9.868228911999994
24.53689974999999,2.4575894169999994,-0.013621674000000037,9.902357940999998
24.546909749999994,2.1432431029999996,-0.026345215000000036,9.854607238999995
24.556888749999985,1.7814454649999998,-0.004191283999999996,9.90220825200001
24.566898750000007,1.542991333,0.011076964999999979,9.920320587
24.576877749999984,1.4524296569999993,0.022752685999999998,9.936037902999997
24.586887749999985,1.4515315249999996,-0.032781829999999984,9.870324553999998
24.596866749999993,1.3597723389999994,-0.004640349999999989,9.899513855000002
24.60687674999999,1.0103988649999995,0.03308120699999998,9.886640625000002
24.61685575,0.8123606869999997,0.025447083000000002,9.894873504999998
24.626835749999984,0.712667999,0.025596771000000018,9.918973388999994
24.636844749999987,0.5221142580000002,0.019459534000000007,9.918374634000001
24.646824750000007,0.28590545699999925,0.02409988399999999,9.902058562999999
24.65683374999999,0.09759704599999959,0.02724334700000002,9.908944244000006
24.666813749999996,-0.1302291869999999,0.08547225999999997,9.900711364999998
24.676822749999975,-0.3608995059999997,-0.00553848299999999,9.928553467
24.686802749999995,-0.5231620790000001,0.09131011999999995,9.909692687999994
24.696816039999998,-0.8155041499999995,0.10508148199999999,9.952503661999998
24.706796039999983,-1.1048524479999997,0.057929535000000004,9.946216736000004
24.71680504,-1.1262579349999997,0.08173004199999996,9.933044128000002
24.72678503999999,-1.3349240109999998,0.09145980799999998,9.964927826
24.736794039999992,-1.8273999020000005,0.134719849,9.932295685
24.74677403999999,-2.1510269169999994,0.11870315599999998,9.947563934000003
24.756783039999995,-2.251617736999999,0.13292358400000007,9.936486969000008
24.76676304,-2.428549804999999,0.118703156,9.946366425
24.776742039999974,-2.3285577389999994,0.13337264999999995,9.949958954
24.786752039999993,-1.7354910280000002,0.10882369999999994,9.988129578000006
24.796731039999994,-1.2879217530000002,0.07768844600000001,9.890831908999992
24.80674103999999,-1.1795471190000002,0.07185058600000001,9.923613739000006
24.816720040000003,-1.203946381,0.09175918600000003,9.917027435000001
24.826730039999976,-1.319057007000001,0.11151809700000001,9.941426697
24.836709039999988,-1.4286291500000012,0.08173004199999997,9.891580353
24.846719040000004,-1.191372528,0.083825684,9.920769653
24.856698039999994,-0.7409591679999998,0.11076965300000002,9.918823700000008
24.866708039999995,-0.47361511199999984,0.06227050799999999,9.917326813000004
24.876687039999975,-0.3429368590000002,0.062569885,9.865534514999995
24.88669703999999,-0.18082397499999994,0.04909790000000002,9.969568176000001
24.89667604,-0.02739303600000013,0.10672805799999999,9.897118834999999
24.906686039999993,0.1395098880000002,0.012573852999999977,9.905501404000004
24.916665040000005,0.45355682399999986,0.046253815000000024,9.949509887999996
24.926644039999974,0.6836283879999996,0.012424164,9.877808989999995
24.936654039999983,0.9204359440000003,0.0034428410000000207,9.921667785999997
24.94663304,1.193917236,0.03323089599999995,9.909992064999999
24.956643039999992,1.292861481,-0.0008981319999999928,9.881850586000004
24.96662204,1.548829192999999,-0.01616638199999996,9.892777863000001
24.97663203999998,1.8224601749999993,-0.01871109000000003,9.922116851999991
24.986611039999993,1.9598744200000002,0.020507355000000015,9.873168640000001
24.99662104,2.612367554,-0.04445755000000002,9.946965178999994
25.00660003999999,2.5828788760000005,-0.03472778299999998,9.840835876000009
25.016610040000003,2.305206298999999,-0.010627899,9.880353698999999
25.02658903999999,2.199526062,-0.02469863899999998,9.855655059999998
25.036599039999988,2.411634979,-0.02185455299999995,9.959239655000001
25.046578040000004,2.1897962949999985,-0.042810974000000016,9.8590979
25.05655803999999,1.837279358,0.001496886999999967,9.875413971000004
25.066567039999992,1.6187338259999995,0.016465758999999993,9.913285217000006
25.076547039999973,1.4849121089999995,0.009580078000000011,9.929900665
25.08655603999998,1.4498849490000005,-0.015417937999999975,9.899513855000004
25.09653604,1.324146423,0.02439926099999998,9.858050079000003
25.106545039999997,1.0135423279999995,0.0398172,9.919721832000006
25.11652504,0.8250842289999993,0.032931519,9.914333038000002
25.126534039999992,0.7261399840000003,0.011675720000000035,9.953401793999996
25.13651403999999,0.5683680729999998,0.016914825000000026,9.911039886000005
25.14652304,0.36553985600000005,0.024548950000000014,9.911638641000001
25.156503039999993,0.14639556900000006,0.05119354199999998,9.879904633
25.16651204,-0.023052063000000327,0.08906478899999996,9.895472259999996
25.17649203999997,-0.3031196589999994,0.015867004000000014,9.918075256
25.186501039999985,-0.4725672909999999,0.06780898999999999,9.921069031000005
25.196481039999988,-0.7602690130000002,0.09145980800000003,9.907896422999999
25.206460040000007,-1.0641371149999996,0.08562194799999993,9.949360199000008
25.216470040000008,-1.115480347,0.09325607299999995,9.928104401000002
25.226449039999974,-1.353784789999999,0.095351715,9.942773894999995
25.23645903999998,-1.766925659,0.11256591800000001,9.892927551000003
25.24643803999999,-2.0428019710000003,0.121846619,9.969717865
25.256448039999988,-2.2308110049999996,0.148191834,9.954898682000003
25.266427040000004,-2.380350036999999,0.10927276599999997,9.946815491
25.276437039999983,-2.3718177800000007,0.12633728,9.951904906999994
25.286416039999988,-1.817520447,0.10702743499999999,9.971813507000004
25.29642603999999,-1.3346246340000003,0.104632416,9.910141753999998
25.30640503999999,-1.1786489870000005,0.07589218099999998,9.904752960000007
25.316415039999995,-1.1982582089999996,0.07978408800000003,9.929451599000002
25.32639403999998,-1.2765454099999995,0.11136840800000002,9.931247864
25.336404039999987,-1.4112652590000008,0.075592804,9.946665801999998
25.34638303999999,-1.1768527220000002,0.07649093599999995,9.928703156000001
25.356362039999993,-0.8295748900000001,0.10418335000000002,9.927805023000005
25.36637204,-0.5766009519999996,0.09804611200000003,9.890382842999998
25.376351039999978,-0.40700363200000056,0.08861572299999997,9.933942260999995
25.38636103999999,-0.16480728199999967,0.019908600000000026,9.946366425
25.39634004,-0.03367996199999966,0.10014175399999997,9.912087707999998
25.406350039999985,0.08981323199999994,0.024249573000000017,9.885742493000006
25.41632904,0.3739224239999999,0.03203338600000003,9.930349731000003
25.42633903999998,0.6021977229999992,0.020657042999999996,9.851613463999994
25.436318039999993,0.8954379270000002,0.003742218000000005,9.916877747000001
25.446328039999997,1.1124865720000003,0.015867004000000018,9.908046112
25.45630703999999,1.2449610899999999,0.03308120699999999,9.910890198000004
25.466317039999986,1.4274316409999999,-0.027393035999999985,9.885742492999999
25.476296039999976,1.7480648799999996,-0.042361908,9.919572143999998
25.486306039999985,2.1486318969999996,0.007185059000000045,9.872270508000003
25.496285039999997,2.372715912,-0.023052062999999973,9.884095916999994
25.506265039999995,2.392923889,-0.056732024999999985,9.841284943000005
25.51627404,2.3939717099999993,-0.010328522000000027,9.901160431000005
25.526254039999976,2.3381378169999993,-0.02170486499999995,9.883048096000001
25.53626304,2.4034021,-0.022303619,9.901609497
25.546243039999997,2.177072754,-0.007185059000000003,9.862989807000002
25.556252039999986,1.8594332889999996,-0.020357666000000017,9.894424438000005
25.566232039999996,1.6229251099999986,-0.001796264999999994,9.921967163000001
25.576241039999992,1.4673985289999998,0.03323089599999997,9.911938018999999
25.586221039999987,1.4688954159999994,-0.02814147899999997,9.943672028
25.596230039999984,1.35962265,0.013921051000000002,9.824220428000002
25.606210039999997,1.0175839230000001,0.016465759,9.951306152
25.616219040000004,0.9123527529999996,0.03817062399999999,9.950108643000002
25.626199039999975,0.7560777280000002,0.03068618800000001,9.946067047000003
25.63620803999999,0.5992039489999996,0.014370117000000005,9.879305877999995
25.646188039999984,0.4108955379999993,0.03008743299999999,9.936786346
25.656167039999985,0.15178436300000014,0.020507355,9.891280975000011
25.66617704,-0.016914825000000144,0.07229965199999998,9.909393310999999
25.67615603999998,-0.24698638899999956,0.01736389200000002,9.930200043
25.686166039999993,-0.4082011410000004,0.034877472,9.935139770999998
25.69613704,-0.6984475710000003,0.10957214400000001,9.901759185999994
25.706147039999994,-1.0312055970000003,0.077838135,9.903854828
25.71612603999999,-1.1656260679999992,0.08053253199999999,9.940079498
25.72613603999998,-1.2160711669999997,0.053139496000000015,9.934541015999997
25.736115039999987,-1.57607254,0.09071136499999999,9.914632416000002
25.746125039999978,-1.9952009580000007,0.09430389399999997,9.927954712000004
25.75610403999999,-2.1835093689999994,0.11181747400000001,9.979747009000002
25.766114040000005,-2.343227233999999,0.11810440099999996,9.926607513000004
25.77609303999998,-2.450853424,0.110619965,9.994715880999994
25.78607203999999,-1.970951385,0.11496093799999996,9.957742767
25.796082039999984,-1.4691947939999999,0.09834548999999998,9.929301909999998
25.806061039999978,-1.247505798,0.07723937999999997,9.871671753000003
25.816071039999994,-1.171463928,0.08113128699999998,9.93289444
25.82605003999999,-1.2377760309999994,0.09759704600000002,9.938582610999998
25.836060039999992,-1.3546829220000005,0.06346801800000001,9.949509887999998
25.846039039999997,-1.1641291810000003,0.08711883499999995,9.926607512999993
25.856049039999988,-0.8027806090000003,0.09714798000000002,9.914782103999999
25.866028039999996,-0.5764512629999998,0.084424438,9.907447357
25.876038039999976,-0.4209246830000008,0.06152206400000001,9.927954712
25.88601704,-0.23426284799999983,0.004340973000000005,9.951006775000002
25.896027039999996,-0.0592767329999997,0.05613326999999995,9.89547226
25.90600604,-0.0058378600000003325,0.033081207,9.909692688000002
25.91601603999999,0.24893234299999986,0.0028440859999999944,9.925559692
25.92599503999997,0.5971083069999996,0.026195525999999983,9.872869263
25.935975039999995,0.8295748900000001,0.004939728000000003,9.887987822999998
25.94598403999998,1.1026071170000007,0.007783812999999999,9.895472260000004
25.95596403999999,1.2545411679999998,0.038320312999999974,9.870623932000004
25.965973040000005,1.3858181760000001,-0.022602996999999996,9.916129303
25.975953039999975,1.6688795470000002,-0.01811233500000001,9.942923583999997
25.985962039999997,2.0007394409999995,0.005089416999999991,9.917775879000002
25.99594203999998,2.3396347050000004,-0.019459534,9.888885955999996
26.005951039999985,2.4281007390000005,-0.03353027300000001,9.891580353
26.015931040000005,2.4322920229999987,-0.018411713000000007,9.867630157000002
26.025940039999973,2.376009063999999,-0.014968871999999973,9.901459807999997
26.03592003999999,2.384541321000001,-0.037122802999999996,9.892628174000004
26.045929039999983,2.197729797,-0.015118561000000051,9.899364165999994
26.055909039999992,1.8753002930000002,0.0005987550000000218,9.874216461
26.06591804,1.6652870179999995,-0.005688170999999992,9.902657317999997
26.075898039999977,1.5175442500000005,0.015717316000000023,9.881401519999995
26.08587703999999,1.462907867,-0.027692412999999992,9.919572143999998
26.09588703999999,1.3765374759999995,0.017363892000000006,9.836195525999994
26.10586604,1.103654938,-0.011975097999999997,9.928403777999998
26.115876039999996,0.8943901059999996,0.05852828999999997,9.946216735999998
26.125855039999987,0.7622149660000003,0.02080673200000002,9.931547241
26.13586503999999,0.658480682,0.027542724999999973,9.901310120000003
26.145844039999982,0.44412643399999946,0.04730163600000001,9.922715606999999
26.155854039999998,0.23007156400000026,0.034278717000000014,9.909393311000006
26.16583303999999,0.04535568200000018,0.08861572299999998,9.941875762999999
26.175843039999982,-0.1827699279999996,0.05538482700000001,9.955347747999992
26.18582203999999,-0.39817199699999983,0.027093657999999986,9.895771637000001
26.195832039999992,-0.6304888920000002,0.11406280499999996,9.949659575999998
26.205811039999986,-0.9690847779999994,0.07828720099999999,9.922865294999996
26.215821039999994,-1.1638298029999996,0.075443115,9.928403778
26.225800039999974,-1.1844868469999992,0.10328521700000003,9.917177123999993
26.23577904,-1.5292199710000003,0.113164673,9.916578369
26.245789039999984,-1.950294342,0.10792556800000001,9.905501404
26.255768039999996,-2.1755758669999996,0.10942245500000003,9.97241226200001
26.265778039999997,-2.3008653259999985,0.134719849,9.938283234
26.275757039999984,-2.445015563999999,0.10148895299999999,9.927206267999996
26.28576703999999,-2.071242828000001,0.11406280499999996,9.968370667
26.29574603999999,-1.5009288020000005,0.13172607400000003,9.930798797999994
26.305756039999988,-1.2681628419999995,0.08996292100000007,9.869875487999998
26.31573503999999,-1.2295431520000002,0.087567902,9.931098175000002
26.325745039999987,-1.2603790280000005,0.08637039199999999,9.952054595999995
26.33572403999998,-1.372645569,0.08217910799999997,9.968220978
26.345734039999982,-1.199455719,0.06945556599999997,9.916877746999996
26.355713039999983,-0.8764274600000002,0.11361373900000002,9.892628174000004
26.365723040000002,-0.6218069459999999,0.06436615,9.934091948999997
26.375702039999993,-0.436791687,0.06212081899999998,9.915081481999993
26.385682039999985,-0.21615051299999974,0.03921844500000001,9.945168915000002
26.395691040000003,-0.06541397099999936,0.05508544900000002,9.908195801
26.40567103999999,0.004790038999999857,0.06361770600000001,9.895172881999997
26.415680040000012,0.21330642699999988,0.023950195000000035,9.963580626999999
26.425660039999972,0.4824467469999996,0.03936813399999999,9.909542998999996
26.435669039999986,0.8080197140000003,0.01451980599999997,9.921218719
26.445649039999992,1.0945239260000006,0.01616638199999995,9.919272766
26.455658039999992,1.2364288329999995,0.023201751999999996,9.886490936000003
26.46563804,1.376836853,-0.01871108999999998,9.886790314
26.475647039999984,1.5988252259999998,-0.022453307999999995,9.924960937999995
26.48562703999999,1.922302551,-0.008981322999999977,9.922266541000003
26.495636039999994,2.2915846249999996,0.008232879999999951,9.890083466
26.505616039999985,2.4212150569999986,-0.008382568000000016,9.884694672
26.515626039999994,2.403551787999998,-0.020058289,9.880802765000002
26.52560503999998,2.3791525270000005,0.007334747000000003,9.914782103999997
26.535584040000003,2.3381378170000007,-0.036224669999999994,9.884694671999997
26.545594039999983,2.212249603,-0.029189301000000015,9.925709381000004
26.55557303999999,1.9323316959999992,0.0053887940000000275,9.896071014
26.565583039999996,1.6913328549999995,-0.018711090000000007,9.902357941
26.575562039999983,1.5512242129999996,0.015867003999999983,9.899513854999997
26.585572039999985,1.5289205929999998,-0.030087433000000014,9.918374634
26.59555103999999,1.4175521849999997,0.002544708000000015,9.829459534000001
26.60556103999999,1.0788066100000004,-0.015867004000000018,9.910441132000004
26.615540039999992,0.9617500309999992,0.04715194699999998,9.925709381
26.62555003999998,0.8577163700000004,0.014968872000000008,9.89487350499999
26.635529039999994,0.6954537959999999,0.017812957999999986,9.917027435
26.64553903999999,0.48244674699999973,0.05014572099999999,9.888287201000002
26.655518039999997,0.28665390000000035,0.04056564299999999,9.917027435
26.66552804,0.09774673500000002,0.06197113,9.912087707999996
26.675507039999978,-0.14325210599999966,0.06301895100000002,9.943522338999996
26.685486039999994,-0.37302429199999987,0.015717315999999988,9.873168640000001
26.69549061999999,-0.5875282290000006,0.11346405000000004,9.957144011999999
26.70546962,-0.8881031799999999,0.06286926299999998,9.937534790000003
26.715479620000014,-1.1476634220000002,0.08547226,9.942773895
26.725458629999984,-1.1949650569999999,0.10672805800000001,9.917925567999998
26.735468629999996,-1.4361135860000007,0.08008346599999998,9.957742767
26.74544762999999,-1.8547929379999992,0.08397537199999999,9.917027434999998
26.75545762999998,-2.1231848139999983,0.12139755300000003,9.950857085999997
26.765436619999992,-2.261646880999999,0.130079498,9.948162688999997
26.775446619999983,-2.480641479,0.11316467300000001,9.950408019999994
26.78542561999999,-2.090253296000001,0.10657836899999999,9.986033935999997
26.79543561999999,-1.5109579470000007,0.12543914799999997,9.926308135999998
26.805414619999997,-1.283431090999999,0.086520081,9.872420197000006
26.815424620000005,-1.274300078999999,0.08307724000000002,9.921218719000004
26.825403629999986,-1.2695100399999997,0.10313552900000003,9.962981872999997
26.83538361999999,-1.3416600040000002,0.09056167599999998,9.953701172
26.845392629999985,-1.2391232299999995,0.07110214199999997,9.951006775
26.855372619999997,-0.8966354369999999,0.09684860200000002,9.880802765000004
26.865381619999997,-0.6559359739999996,0.06765930200000002,9.9586409
26.875361619999982,-0.5388793950000005,0.07993377699999997,9.897567901999999
26.885370619999993,-0.2894979859999998,0.03742217999999998,9.962981872999999
26.895350619999984,-0.0751437379999995,0.05643264799999999,9.924212494000002
26.90535961999999,0.04176315299999994,0.10014175399999999,9.903705139
26.915339629999988,0.24249572799999972,0.01811233500000002,9.947563934000003
26.925349629999985,0.4749623109999995,0.04565505999999999,9.938133544999998
26.935328619999996,0.7042854310000003,0.024249572999999983,9.916728057999999
26.945338619999994,0.9985734560000001,0.028740233999999937,9.896520080999997
26.955317619999985,1.2684622189999997,0.036074982,9.907447356999997
26.96532762,1.3451028440000001,-0.01841171299999999,9.895621948000006
26.97530661999998,1.578766936999999,0.002395020000000016,9.904154204999998
26.98528561999998,1.90134613,-0.0014968870000000027,9.900411987000002
26.995295619999993,2.2733226010000007,0.008981322999999965,9.911339264000002
27.005274629999988,2.3671774289999985,-0.032781829999999984,9.868079223999999
27.01528463,2.2860461429999983,-0.04505630499999997,9.870174866000003
27.02526361999998,2.5134233089999993,-0.00404159499999997,9.904154204999992
27.035273619999987,2.389481049000001,-0.01227447500000001,9.884694672
27.04525261999999,2.174078979,-0.044906616,9.875264281999998
27.05526261999999,1.880838776,0.003143462999999995,9.893526305999998
27.065241620000002,1.658850402999999,0.0023950199999999743,9.910890197999999
27.075251619999975,1.529818726,0.01841171299999999,9.918524322999994
27.085230619999994,1.5377522279999998,-0.02275268600000004,9.905052338
27.09524062,1.5001803589999998,-0.019459534,9.851613463999998
27.105219629999997,1.1756552119999997,-0.015567627000000006,9.899364166
27.115229630000005,0.9695338439999994,0.04655319199999995,9.918374634000005
27.125208619999988,0.8355624389999999,0.02110611,9.888436889999996
27.135187619999993,0.7381150819999999,0.03936813399999999,9.931397552
27.14519762,0.5538482669999997,0.030386809999999997,9.911039886
27.15517661999998,0.27887008700000016,0.028440856999999983,9.915680236999998
27.165186619999986,0.06990463299999992,0.050894165000000005,9.902357941000002
27.17516561999998,-0.1124162289999994,0.08592132600000002,9.946516112999996
27.18517562,-0.3558100890000003,-0.004191284000000029,9.930649109000006
27.195154629999998,-0.5093907170000006,0.079335022,9.904603271
27.205164629999988,-0.8431965639999996,0.09400451700000001,9.968819733000005
27.215143619999996,-1.136287079,0.06406677199999997,9.909992065000004
27.225153619999983,-1.1804452509999996,0.09415420500000005,9.951904906999998
27.235132619999998,-1.4437477110000005,0.10373428299999995,9.936486969000004
27.245142619999992,-1.9089802550000001,0.09774673500000002,9.946665801999998
27.25512161999999,-2.1342617799999988,0.127385101,9.940977631
27.26513162,-2.2580543519999985,0.14744338999999995,9.966873779
27.275110619999996,-2.4474105829999986,0.11915222199999996,9.921368408000001
27.28509061999999,-2.1421952819999994,0.12274475099999996,9.981543274
27.295099629999996,-1.5890954589999997,0.12948074299999998,9.949509888
27.305079619999994,-1.3015434269999995,0.08427475,9.884844360000006
27.315089620000006,-1.2528945919999994,0.09804611199999998,9.916578369000003
27.325068619999985,-1.2335847469999994,0.09969268799999999,9.950857085999997
27.33507861999999,-1.3756393429999996,0.082478485,9.946516112999996
27.34505761999999,-1.2943583679999997,0.06227050800000004,9.958042145
27.355067619999986,-0.9277706910000001,0.10418335000000001,9.889185333000002
27.365046629999995,-0.6429130549999996,0.08158035299999997,9.940678252999998
27.37505662999998,-0.5022056580000004,0.08532257099999994,9.906698913999998
27.38503562999999,-0.31973510699999963,-0.001496886999999985,9.958790587999996
27.39504562999999,-0.12049941999999887,0.05313949599999997,9.916578368999994
27.40502461999999,0.0016465759999996655,0.078137512,9.879904633
27.415034619999997,0.18830841099999965,0.027991791000000037,10.004894709999999
27.425013619999994,0.5162763979999999,0.04296066300000004,9.938283234
27.435023619999978,0.7674540710000001,0.009430388999999971,9.92466156
27.445002619999997,1.0322534180000007,0.007783812999999993,9.876761169
27.45498162999999,1.2738510129999998,0.03353027299999998,9.934241637999996
27.464991629999993,1.3181588749999986,-0.0017962649999999762,9.893825684000003
27.47497062999998,1.5817607119999992,-0.0019459529999999456,9.912985839999997
27.48498062999998,1.8790425110000004,0.009879456000000014,9.886341248000004
27.494959619999978,2.2611978150000005,0.0028440859999999944,9.901010741999995
27.504969619999983,2.397264862,-0.030237121999999995,9.866732025000006
27.514948619999995,2.4010070799999976,-0.03652404799999993,9.894574127000006
27.524958619999992,2.368524627999999,-0.004191283999999942,9.880503387000001
27.534937619999994,2.349065094,-0.012573853000000001,9.892777863000001
27.544947619999995,2.2483245849999998,-0.017513579999999994,9.88020401
27.554926629999986,1.9693048099999995,0.007035369999999966,9.885143737999998
27.56493662,1.7061520389999996,-0.0002993770000000305,9.899064789000002
27.574915629999985,1.560654602,0.014819183000000001,9.906698914
27.58492562999999,1.478475494,-0.018112334999999993,9.922715607
27.59490461999999,1.4602134699999996,-0.020357665999999996,9.849368134
27.604883619999985,1.20873642,-0.00464034999999998,9.900561676
27.614893619999997,1.0030641170000003,0.044607238999999986,9.892328796000001
27.624872619999984,0.8298742679999993,0.021405487000000025,9.924811249000001
27.634882619999985,0.744102631,0.009729766999999967,9.902357941000004
27.644861619999993,0.5028044129999996,0.034727783000000005,9.933193817
27.654871619999994,0.31928604100000035,0.03772155800000001,9.919272766000002
27.66485063000001,0.12499008200000006,0.06122268699999998,9.906998291000004
27.674860629999998,-0.12963043199999963,0.10208770800000001,9.956694945999999
27.68483961999998,-0.34952316300000064,0.011226653999999994,9.900411987
27.694849619999992,-0.5460644530000008,0.11825408900000002,9.912536774000003
27.70481841999999,-0.8554710389999991,0.078885956,9.9586409
27.714828420000007,-1.1204200739999992,0.08532257099999997,9.906549225000001
27.724808419999984,-1.1942166139999997,0.08801696800000001,9.933493194999999
27.73481742,-1.4412030029999996,0.10089019799999999,9.937085724
27.74479742,-1.9260447690000009,0.11376342800000003,9.918973389
27.754776420000002,-2.1171972659999994,0.10463241599999998,9.962682495
27.764786420000004,-2.282902678999998,0.137863312,9.945767670000006
27.77476541999998,-2.4557931519999983,0.142653351,9.939031676999997
27.784775419999985,-2.1868025209999993,0.12603790299999995,9.976603546
27.79475441999999,-1.59598114,0.11705657999999995,9.96208374
27.804764419999994,-1.3040881350000002,0.079784088,9.891879730000003
27.814743420000013,-1.2802876279999997,0.06631210300000002,9.924661559999999
27.824753419999986,-1.2602293399999998,0.10807525600000005,9.920170898
27.83473241999999,-1.3813275149999997,0.08472381600000001,9.954000548999996
27.84474241999999,-1.2481045529999997,0.06556366,9.939630432
27.85472142,-0.8686436460000002,0.08292755099999999,9.923164673000002
27.86473141999999,-0.6459068300000003,0.054786072000000005,9.912985839999997
27.87471042,-0.5333409120000001,0.07903564499999999,9.912087707999996
27.88472042,-0.3305126950000001,0.05897735599999998,9.925410004
27.894699419999988,-0.10298583999999977,0.04834945699999997,9.940977631
27.90467841999999,0.010627898999999904,0.06735992399999999,9.889634399
27.91468842,0.20522323600000014,0.01317260700000002,9.966574402
27.924667419999988,0.4942721559999993,0.035625915999999994,9.913434905999997
27.93467741999999,0.7300318910000003,0.025746459999999978,9.917027434999998
27.94465641999999,1.0294093320000008,0.011825408999999978,9.888287200999999
27.95466642,1.2799882509999996,0.03218307499999998,9.893975372
27.964645420000007,1.3350736999999993,0.011675720000000006,9.890532531999998
27.974655419999998,1.5976277159999999,-0.012873229999999996,9.893226929
27.984634419999992,1.90957901,-0.00853225700000001,9.884544983000001
27.994644419999997,2.259102173,-0.011825409000000007,9.888287201000004
28.00462341999999,2.3851400759999994,-0.032183075,9.895921326000007
28.01463342,2.437531127999999,-0.026794281000000003,9.863887939000001
28.024612419999993,2.4430696109999994,-0.009430388999999938,9.897118835000002
28.034622419999998,2.2270687869999994,-0.024249573000000014,9.873767394999996
28.04460141999999,2.223027191000001,-0.03203338599999997,9.930349731
28.054580419999997,2.061812439,-0.02200424200000002,9.885742493000002
28.064590419999995,1.8100360110000002,0.016316071,9.886490936000001
28.074569419999982,1.581161957,0.02260299699999999,9.914931793
28.08457941999999,1.5022760009999996,-0.018711090000000014,9.932145996
28.094558419999984,1.4656022640000008,-0.0029937739999999907,9.837692412999994
28.10456842,1.1314970400000002,0.00044906599999998897,9.919272766
28.114547420000008,0.9407936099999996,0.035176848999999996,9.908944244
28.12455741999998,0.8384065249999996,0.012124786000000009,9.907147980000003
28.134537419999983,0.7328759769999997,0.018561400999999988,9.915829925999997
28.144546419999998,0.5207670589999998,0.041014709,9.892478484999998
28.154526419999993,0.2933898930000002,0.043409729,9.907597046
28.164535420000007,0.0758921810000005,0.05478607199999997,9.889484711000001
28.174515419999985,-0.15612533599999961,0.07274871800000003,9.980944519
28.184524419999992,-0.351319428,0.024249572999999986,9.861343230999998
28.194504419999987,-0.5622308350000004,0.09355544999999998,9.951605529999998
28.20451342,-0.8849597170000002,0.038470001000000004,9.936037903000003
28.214493419999997,-1.1305989069999993,0.08143066399999997,9.928104401
28.22447241999998,-1.1936178589999997,0.103584595,9.955347748
28.234482419999985,-1.4455439760000004,0.09969268799999995,9.928403778000002
28.24446141999999,-1.9058367919999997,0.08352630599999998,9.907597045999998
28.254471420000005,-2.127825164999999,0.11720626799999999,9.965526581000002
28.26445042000001,-2.2927821349999986,0.14070739799999998,9.950857086
28.274460419999986,-2.4474105829999995,0.12244537400000001,9.954599303999995
28.28443941999999,-2.165247345,0.105380859,9.958191832999999
28.294449419999996,-1.5756234740000001,0.102686462,9.925709381000003
28.304428420000008,-1.2951068119999993,0.07559280399999997,9.894574127
28.31443842,-1.2864248659999997,0.06990463300000002,9.927056580000004
28.324417419999985,-1.3217514039999996,0.08996292099999995,9.959389342999991
28.33442741999999,-1.3739927669999996,0.10358459499999997,9.941576384999996
28.344406420000002,-1.2850776669999997,0.079933777,9.931846619000002
28.35441642,-0.8768765260000004,0.104931793,9.935888214000002
28.364395419999997,-0.616118774,0.07035369900000002,9.936486969000002
28.37437441999998,-0.46882507300000004,0.064216461,9.907297668
28.38438441999998,-0.2953358459999997,0.025596770999999987,9.919572143999998
28.394363419999998,-0.0725990300000002,0.05388793899999999,9.902357941000004
28.404373419999995,0.038769378999999694,0.05867797900000001,9.930649109
28.414352420000007,0.23381378199999917,0.028141478999999994,9.944719849
28.42436241999998,0.4755610659999994,0.05553451500000003,9.928403777999993
28.434341419999985,0.6556365970000001,0.035925293000000004,9.915680236999998
28.44435141999999,0.9422904969999992,0.018561400999999957,9.887688445999997
28.454330419999994,1.2793894959999998,0.053289185,9.908495178000006
28.46434042,1.4913487239999994,-0.04460723899999998,10.076445920000001
28.47431941999998,1.6717236329999998,-0.0011975100000000199,9.919871520999992
28.48432941999999,1.9240988160000005,-0.006586303999999987,9.88080276499999
28.494308419999985,2.285297699,0.014819182999999977,9.845476227
28.50431842,2.3903791809999997,-0.03158431999999998,10.24005569
28.51429742,2.510878600999999,-0.03951782199999996,9.880353699000006
28.524277419999997,2.5738975520000005,-0.012873230000000055,10.22239243
28.53428641999999,2.382445679000001,-0.06601272600000001,10.286010129999994
28.544266419999996,2.295027466,-0.032183075,9.902657317999997
28.55427542,1.9383192439999999,-0.042511597000000005,9.893975372000002
28.56425541999999,1.6825012209999992,0.02035766600000005,9.887389069000001
28.57426441999998,1.5570620729999998,0.036074982,9.939929809999995
28.58424441999999,1.5187417599999997,-0.011526031000000004,9.920769652999995
28.59425341999999,1.4672488399999999,-0.0010478210000000301,9.83110611
28.604233419999993,1.0822494509999996,-0.012873229999999992,9.927355957
28.61424242,0.9247769170000004,0.036074982000000005,9.925110626
28.62422241999997,0.8376580809999996,0.013322296000000016,9.884844359999995
28.634231419999985,0.714015198,0.012424163999999982,9.897418212999995
28.644211419999994,0.44697052,0.033679962,9.921218718999995
28.654220419999994,0.1190025330000002,0.058378600999999995,9.906698914000003
28.664200419999993,-0.12873229999999977,0.058079224,9.930349731000002
28.674179419999973,-0.3887416080000003,0.08038284300000001,9.967771911999996
28.68418941999998,-0.682730255,0.010478209999999988,9.935588836999997
28.69416841999999,-0.8559201050000007,0.14325210599999996,9.920170897999999
28.70416267,-1.147214355,0.105829926,9.974507904000003
28.71414167,-1.1746073909999992,0.083975372,9.941726074000002
28.724151669999973,-1.4253359990000003,0.110619965,9.946965178999998
28.734130669999995,-1.8241067499999999,0.11660751299999997,9.919123076999998
28.74414066999999,-2.012714539000001,0.12618759200000002,9.96088623
28.75411966999998,-2.116897888,0.10777587900000002,9.944869537000002
28.764129670000003,-2.2546115109999993,0.124990082,9.95744339
28.77410866999998,-2.083217926,0.11121871999999998,9.971364440999999
28.784118669999987,-1.5244299320000005,0.094303894,9.967921599999999
28.79409767,-1.0108479310000003,0.09729766799999998,9.913734283000004
28.804107669999993,-0.9277706909999995,0.09041198699999997,9.915829926000008
28.81408666999999,-1.02027832,0.07843689000000002,9.912836151000006
28.82409666999999,-1.0416838069999996,0.06256988499999998,9.969119109999998
28.83407566999999,-0.9357041929999996,0.08816665599999997,9.939780120999997
28.84405466999999,-0.6846762090000001,0.085023193,9.923763428
28.85406467,-0.378562775,0.07888595600000002,9.930499420000002
28.864043670000004,-0.198636932,0.09879455599999999,9.903705139000001
28.874053669999977,-0.10448272700000016,0.019908600000000002,9.941426696999997
28.884032669999996,0.07334747300000012,0.059576110999999994,9.882898406999997
28.894042669999987,0.20357666,0.07155120899999998,9.912087707999998
28.90402167,0.3531156920000001,0.007783813000000023,9.914333038000004
28.91403167000001,0.5489085389999996,0.04984634400000001,9.924811249000001
28.92401066999998,0.8138575749999994,0.03472778300000002,9.920021209999998
28.93402066999999,0.942889252,0.012573852999999994,9.875264282
28.943999669999997,1.161135406,0.024998015999999942,9.885592803999998
28.954009669999998,1.3184582519999999,-0.004640350000000015,9.884544983000003
28.963988669999992,1.7375866699999993,-0.09086105299999997,9.235494690000003
28.97399866999998,1.671424255,-0.011376343000000011,9.785151672
28.98397767,1.5510745240000006,-0.013322295999999997,9.932595061999997
28.99395766999999,1.560654602,-0.01601669300000002,10.068362729999999
29.003966669999986,1.503174132999999,0.05643264799999999,10.141560520000004
29.013946669999992,1.642534331999999,-0.0019459529999999931,9.761201477000002
29.023955669999985,1.633253631999999,-0.0004490659999999667,9.929900664999996
29.033935669999988,1.6694783019999992,-0.013322295999999992,9.855355681999994
29.043944669999977,1.2693603519999999,-0.0017962650000000416,9.881401519999999
29.053924669999994,0.9973759459999999,0.01916015600000001,9.837393036000003
29.063933669999994,0.9862989809999994,0.045056305000000005,9.926906891000002
29.07391366999999,0.8840615849999993,0.027243346999999987,9.887987823000001
29.083922669999996,0.7523355099999999,0.00943038899999998,9.889784087999997
29.09390266999998,0.6203100589999999,0.03772155800000001,9.895621948000004
29.103911669999988,0.49816406300000005,0.062420197,9.913434906000003
29.113891669999997,0.33679962199999974,0.01392105099999999,9.901609497000003
29.12390066999999,0.19414627099999968,0.03637435900000003,9.945318604000002
29.13388067,0.05478607199999998,0.03966751099999998,9.900411987
29.14388966999999,-0.06436615000000083,0.06092330900000001,9.896520080999998
29.15386967,-0.21974304199999997,0.043709106000000005,9.901010742000002
29.163848670000004,-0.3240760799999998,0.06765930199999995,9.897268524000003
29.173858669999984,-0.3870950319999999,0.08532257100000001,9.913285217
29.183837670000003,-0.5530998230000005,0.06930587799999996,9.910590819999998
29.193847669999986,-0.639021149,0.04670288100000001,9.937983855999999
29.203826669999994,-0.7011419679999992,0.06092330900000004,9.914931793
29.213836670000003,-0.7349716189999997,0.08098159799999997,9.947563934000005
29.22381566999998,-0.7830216979999992,0.08457412700000001,9.915829926
29.233825669999987,-0.8158035280000004,0.10433303800000002,9.932595062
29.243804669999996,-0.9295669560000007,0.07110214200000001,9.913434906000003
29.253814669999993,-0.9951306149999998,0.08247848500000003,9.92421249400001
29.26379366999999,-0.787811736999999,0.06780898999999999,9.931547241000002
29.27380366999997,-0.503253479,0.06930587800000002,9.925559691999997
29.28378266999999,-0.2677931210000005,0.05194198599999999,9.903555449999997
29.29379266999999,-0.21210891700000017,0.058228911999999966,9.892927551
29.303771669999982,-0.257015533,0.061222687000000005,9.909393311000004
29.313750669999994,-0.3132984919999996,0.059127045,9.924661560000002
29.323760669999974,-0.23680755599999992,0.060474243,9.929002532999997
29.33373966999999,-0.10268646200000026,0.04400848399999997,9.908345490000002
29.343749669999994,0.016016692999999877,0.07050338699999999,9.907297668000002
29.353728669999988,0.13636642499999968,0.06077362099999997,9.908944244000002
29.363738670000004,0.2025288389999999,0.036673737,9.921368408000005
29.37371766999999,0.21644988999999984,0.043709106,9.91642868
29.383727669999995,0.31090347300000004,0.05583389300000003,9.917027434999994
29.39370666999999,0.4336482240000004,0.03323089599999999,9.902058562999999
29.403716670000005,0.5498066709999997,0.035476227000000006,9.920320587000003
29.41369567,0.5786965939999997,0.025896148999999997,9.877210236000003
29.42370566999998,0.5605842589999999,0.027842101999999994,9.921069031000002
29.43368466999999,0.6053411870000008,0.017962645999999985,9.920320587
29.443694669999992,0.6719526669999999,0.04385879499999998,9.920320586999999
29.453673670000004,0.7066804500000005,0.03742218,9.908195801000003
29.463653669999996,0.713715819999999,0.035775604000000016,9.912836151000002
29.473662669999985,0.708776093,0.04879852300000003,9.895921325999996
29.483642669999995,0.6966513060000007,0.009580077999999994,9.869127045
29.493651669999984,0.6388714600000004,0.016914824999999977,9.962233429000001
29.50363167000001,0.6054908750000002,0.033081207000000015,9.927655333999997
29.513640670000004,0.5517526249999994,0.029189301000000042,9.905800781000003
29.52362066999999,0.431552582,0.035925293,9.892328795999996
29.533629670000003,0.30835876500000053,0.034428405999999974,9.914782103999993
29.54360966999998,0.31419662500000006,0.02050735499999995,9.859397278
29.55361866999999,0.36643798799999994,0.042062531000000014,10.168354800000001
29.563598670000008,0.18576370199999956,0.036524047999999996,9.877808990000004
29.573607669999983,-0.03397933999999998,0.022602997000000027,9.928852843999993
29.58358767,-0.10822494499999996,0.057779845999999975,9.903854827999998
29.593596669999993,-0.19923568700000016,0.06271957399999997,9.933642883000001
29.60357667,-0.28321106000000007,0.04834945699999999,9.915829926
29.613585669999985,-0.22288650500000018,0.044756927,9.941875763000002
29.623565669999977,-0.08547226000000006,0.07080276499999996,9.917925567999996
29.63354466999999,0.012124786000000049,0.04954696699999999,9.911189574999993
29.64355467,0.07244934099999986,0.024998015999999974,9.895172881999997
29.65353366999999,0.136665802,0.04296066300000002,9.898765410999998
29.663543670000003,0.1686991880000002,0.05119354199999998,9.929900665000003
29.67352266999998,0.17393829399999972,0.06227050799999999,9.901459807999998
29.68353267,0.16690292399999956,0.04655319199999997,9.910141753999996
29.693511669999992,0.15642471299999963,0.038020934999999985,9.891280974999999
29.703526170000007,0.17528549200000026,0.04086502100000001,9.924661559999999
29.71350517,0.21240829500000055,0.035925292999999976,9.904453583000006
29.72351516999998,0.15926879900000013,0.053588562000000006,9.920470276000001
29.733494169999993,0.14983840899999942,0.04505630499999997,9.909842376999997
29.74350417,0.14998809799999951,0.032332763999999986,9.928403778
29.753483170000003,0.17573455799999962,0.029488678000000008,9.909243622
29.76349316999999,0.18441650400000034,0.04834945699999999,9.925559692000006
29.77347216999997,0.1945953369999997,0.06137237500000003,9.895322570999996
29.783451169999974,0.16929794299999937,0.054337005999999965,9.928104400999995
29.793461169999993,0.16331039399999997,0.04311035199999998,9.908495177999999
29.803440169999984,0.14130615199999988,0.054636383,9.919721831999999
29.813450170000003,0.15567627000000042,0.04655319199999997,9.897118835
29.823429169999976,0.17932708699999994,0.05388793900000002,9.902807006999998
29.83343917,0.15642471299999983,0.04580474899999997,9.907896422999999
29.843418169999975,0.167202301,0.04535568199999998,9.919272765999999
29.85342817,0.18800903299999983,0.047900391,9.935738525000001
29.863407169999995,0.17648300200000006,0.021555176000000027,9.907447357000002
29.873417169999975,0.17229171799999948,0.044607238999999986,9.931996306999997
29.883396169999983,0.1944456480000002,0.04385879500000001,9.912836150999993
29.893406169999974,0.16031662000000022,0.030536498999999974,9.920320587000004
