Time (s),Raw Acceleration,Acceleration x (m/s^2)
20,2583,-0.029138614
20.01,2586,-0.058277228
20.02,2577,0.029138614
20.03,2589,-0.087415842
20.04,2581,-0.009712871
20.05,2592,-0.116554455
20.06,2573,0.067990099
20.07,2586,-0.058277228
20.08,2.58E+03,0.029138614
20.09,2587,-0.067990099
20.1,2578,0.019425743
20.11,2589,-0.087415842
20.12,2576,0.038851485
20.13,2588,-0.07770297
20.14,2577,0.029138614
20.15,2584,-0.038851485
20.16,2579,0.009712871
20.17,2582,-0.019425743
20.18,2579,0.009712871
20.19,2578,0.019425743
20.2,2578,0.019425743
20.21,2579,0.009712871
20.22,2582,-0.019425743
20.23,2581,-0.009712871
20.24,2584,-0.038851485
20.25,2582,-0.019425743
20.26,2589,-0.087415842
20.27,2576,0.038851485
20.28,2586,-0.058277228
20.29,2575,0.048564356
20.3,2585,-0.048564356
20.31,2572,0.07770297
20.32,2584,-0.038851485
20.33,2574,0.058277228
20.34,2585,-0.048564356
20.35,2576,0.038851485
20.36,2587,-0.067990099
20.37,2576,0.038851485
20.38,2590,-0.097128713
20.39,2576,0.038851485
20.4,2581,-0.009712871
20.41,2577,0.029138614
20.42,2587,-0.067990099
20.43,2580,0
20.44,2583,-0.029138614
20.45,2577,0.029138614
20.46,2581,-0.009712871
20.47,2586,-0.058277228
20.48,2578,0.019425743
20.49,2579,0.009712871
20.5,2579,0.009712871
20.51,2586,-0.058277228
20.52,2579,0.009712871
20.53,2587,-0.067990099
20.54,2581,-0.009712871
20.55,2587,-0.067990099
20.56,2579,0.009712871
20.57,2586,-0.058277228
20.58,2573,0.067990099
20.59,2590,-0.097128713
20.6,2574,0.058277228
20.61,2586,-0.058277228
20.62,2577,0.029138614
20.63,2587,-0.067990099
20.64,2577,0.029138614
20.65,2591,-0.106841584
20.66,2577,0.029138614
20.67,2589,-0.087415842
20.68,2578,0.019425743
20.69,2586,-0.058277228
20.7,2580,0
20.71,2582,-0.019425743
20.72,2582,-0.019425743
20.73,2585,-0.048564356
20.74,2581,-0.009712871
20.75,2583,-0.029138614
20.76,2580,0
20.77,2585,-0.048564356
20.78,2580,0
20.79,2577,0.029138614
20.8,2584,-0.038851485
20.81,2580,0
20.82,2586,-0.058277228
20.83,2572,0.07770297
20.84,2586,-0.058277228
20.85,2578,0.019425743
20.86,2583,-0.029138614
20.87,2579,0.009712871
20.88,2585,-0.048564356
20.89,2583,-0.029138614
20.9,2590,-0.097128713
20.91,2581,-0.009712871
20.92,2588,-0.07770297
20.93,2580,0
20.94,2584,-0.038851485
20.95,2573,0.067990099
20.96,2583,-0.029138614
20.97,2574,0.058277228
20.98,2579,0.009712871
20.99,2582,-0.019425743
21,2584,-0.038851485
21.01,2585,-0.048564356
21.02,2583,-0.029138614
21.03,2582,-0.019425743
21.04,2574,0.058277228
21.05,2589,-0.087415842
21.06,2574,0.058277228
21.07,2586,-0.058277228
21.08,2578,0.019425743
21.09,2589,-0.087415842
21.1,2578,0.019425743
21.11,2585,-0.048564356
21.12,2575,0.048564356
21.13,2592,-0.116554455
21.14,2576,0.038851485
21.15,2589,-0.087415842
21.16,2569,0.106841584
21.17,2589,-0.087415842
21.18,2573,0.067990099
21.19,2587,-0.067990099
21.2,2576,0.038851485
21.21,2586,-0.058277228
21.22,2577,0.029138614
21.23,2585,-0.048564356
21.24,2582,-0.019425743
21.25,2581,-0.009712871
21.26,2585,-0.048564356
21.27,2580,0
21.28,2581,-0.009712871
21.29,2576,0.038851485
21.3,2583,-0.029138614
21.31,2576,0.038851485
21.32,2588,-0.07770297
21.33,2574,0.058277228
21.34,2583,-0.029138614
21.35,2577,0.029138614
21.36,2585,-0.048564356
21.37,2575,0.048564356
21.38,2586,-0.058277228
21.39,2575,0.048564356
21.4,2588,-0.07770297
21.41,2573,0.067990099
21.42,2583,-0.029138614
21.43,2581,-0.009712871
21.44,2586,-0.058277228
21.45,2579,0.009712871
21.46,2586,-0.058277228
21.47,2585,-0.048564356
21.48,2582,-0.019425743
21.49,2582,-0.019425743
21.5,2580,0
21.51,2582,-0.019425743
21.52,2584,-0.038851485
21.53,2580,0
21.54,2580,0
21.55,2586,-0.058277228
21.56,2578,0.019425743
21.57,2581,-0.009712871
21.58,2578,0.019425743
21.59,2587,-0.067990099
21.6,2574,0.058277228
21.61,2583,-0.029138614
21.62,2579,0.009712871
21.63,2582,-0.019425743
21.64,2576,0.038851485
21.65,2585,-0.048564356
21.66,2574,0.058277228
21.67,2590,-0.097128713
21.68,2572,0.07770297
21.69,2590,-0.097128713
21.7,2575,0.048564356
21.71,2590,-0.097128713
21.72,2577,0.029138614
21.73,2585,-0.048564356
21.74,2576,0.038851485
21.75,2586,-0.058277228
21.76,2577,0.029138614
21.77,2586,-0.058277228
21.78,2584,-0.038851485
21.79,2582,-0.019425743
21.8,2585,-0.048564356
21.81,2582,-0.019425743
21.82,2585,-0.048564356
21.83,2584,-0.038851485
21.84,2584,-0.038851485
21.85,2580,0
21.86,2583,-0.029138614
21.87,2576,0.038851485
21.88,2587,-0.067990099
21.89,2582,-0.019425743
21.9,2586,-0.058277228
21.91,2576,0.038851485
21.92,2585,-0.048564356
21.93,2577,0.029138614
21.94,2587,-0.067990099
21.95,2571,0.087415842
21.96,2587,-0.067990099
21.97,2576,0.038851485
21.98,2588,-0.07770297
21.99,2577,0.029138614
22,2584,-0.038851485
22.01,2578,0.019425743
22.02,2584,-0.038851485
22.03,2585,-0.048564356
22.04,2585,-0.048564356
22.05,2582,-0.019425743
22.06,2580,0
22.07,2584,-0.038851485
22.08,2579,0.009712871
22.09,2584,-0.038851485
22.1,2576,0.038851485
22.11,2590,-0.097128713
22.12,2574,0.058277228
22.13,2587,-0.067990099
22.14,2573,0.067990099
22.15,2589,-0.087415842
22.16,2572,0.07770297
22.17,2590,-0.097128713
22.18,2577,0.029138614
22.19,2587,-0.067990099
22.2,2574,0.058277228
22.21,2585,-0.048564356
22.22,2579,0.009712871
22.23,2589,-0.087415842
22.24,2573,0.067990099
22.25,2589,-0.087415842
22.26,2577,0.029138614
22.27,2587,-0.067990099
22.28,2574,0.058277228
22.29,2581,-0.009712871
22.3,2581,-0.009712871
22.31,2579,0.009712871
22.32,2583,-0.029138614
22.33,2580,0
22.34,2587,-0.067990099
22.35,2579,0.009712871
22.36,2580,0
22.37,2577,0.029138614
22.38,2584,-0.038851485
22.39,2573,0.067990099
22.4,2587,-0.067990099
22.41,2576,0.038851485
22.42,2592,-0.116554455
22.43,2577,0.029138614
22.44,2588,-0.07770297
22.45,2574,0.058277228
22.46,2589,-0.087415842
22.47,2577,0.029138614
22.48,2585,-0.048564356
22.49,2579,0.009712871
22.5,2585,-0.048564356
22.51,2578,0.019425743
22.52,2582,-0.019425743
22.53,2577,0.029138614
22.54,2584,-0.038851485
22.55,2580,0
22.56,2580,0
22.57,2581,-0.009712871
22.58,2583,-0.029138614
22.59,2583,-0.029138614
22.6,2583,-0.029138614
22.61,2587,-0.067990099
22.62,2579,0.009712871
22.63,2584,-0.038851485
22.64,2573,0.067990099
22.65,2585,-0.048564356
22.66,2577,0.029138614
22.67,2585,-0.048564356
22.68,2576,0.038851485
22.69,2583,-0.029138614
22.7,2574,0.058277228
22.71,2589,-0.087415842
22.72,2574,0.058277228
22.73,2586,-0.058277228
22.74,2577,0.029138614
22.75,2586,-0.058277228
22.76,2576,0.038851485
22.77,2585,-0.048564356
22.78,2579,0.009712871
22.79,2586,-0.058277228
22.8,2577,0.029138614
22.81,2583,-0.029138614
22.82,2577,0.029138614
22.83,2585,-0.048564356
22.84,2583,-0.029138614
22.85,2583,-0.029138614
22.86,2584,-0.038851485
22.87,2578,0.019425743
22.88,2590,-0.097128713
22.89,2583,-0.029138614
22.9,2582,-0.019425743
22.91,2578,0.019425743
22.92,2588,-0.07770297
22.93,2577,0.029138614
22.94,2590,-0.097128713
22.95,2577,0.029138614
22.96,2590,-0.097128713
22.97,2575,0.048564356
22.98,2584,-0.038851485
22.99,2572,0.07770297
23,2583,-0.029138614
23.01,2581,-0.009712871
23.02,2586,-0.058277228
23.03,2576,0.038851485
23.04,2586,-0.058277228
23.05,2580,0
23.06,2586,-0.058277228
23.07,2580,0
23.08,2583,-0.029138614
23.09,2584,-0.038851485
23.1,2578,0.019425743
23.11,2583,-0.029138614
23.12,2580,0
23.13,2584,-0.038851485
23.14,2581,-0.009712871
23.15,2588,-0.07770297
23.16,2580,0
23.17,2588,-0.07770297
23.18,2577,0.029138614
23.19,2585,-0.048564356
23.2,2578,0.019425743
23.21,2587,-0.067990099
23.22,2571,0.087415842
23.23,2583,-0.029138614
23.24,2569,0.106841584
23.25,2592,-0.116554455
23.26,2576,0.038851485
23.27,2586,-0.058277228
23.28,2577,0.029138614
23.29,2588,-0.07770297
23.3,2578,0.019425743
23.31,2585,-0.048564356
23.32,2574,0.058277228
23.33,2584,-0.038851485
23.34,2577,0.029138614
23.35,2583,-0.029138614
23.36,2580,0
23.37,2579,0.009712871
23.38,2579,0.009712871
23.39,2588,-0.07770297
23.4,2578,0.019425743
23.41,2581,-0.009712871
23.42,2580,0
23.43,2576,0.038851485
23.44,2585,-0.048564356
23.45,2577,0.029138614
23.46,2586,-0.058277228
23.47,2578,0.019425743
23.48,2584,-0.038851485
23.49,2577,0.029138614
23.5,2586,-0.058277228
23.51,2576,0.038851485
23.52,2591,-0.106841584
23.53,2579,0.009712871
23.54,2590,-0.097128713
23.55,2582,-0.019425743
23.56,2582,-0.019425743
23.57,2578,0.019425743
23.58,2586,-0.058277228
23.59,2581,-0.009712871
23.6,2584,-0.038851485
23.61,2581,-0.009712871
23.62,2579,0.009712871
23.63,2584,-0.038851485
23.64,2582,-0.019425743
23.65,2582,-0.019425743
23.66,2580,0
23.67,2588,-0.07770297
23.68,2577,0.029138614
23.69,2586,-0.058277228
23.7,2576,0.038851485
23.71,2588,-0.07770297
23.72,2580,0
23.73,2589,-0.087415842
23.74,2577,0.029138614
23.75,2593,-0.126267327
23.76,2575,0.048564356
23.77,2589,-0.087415842
23.78,2575,0.048564356
23.79,2588,-0.07770297
23.8,2578,0.019425743
23.81,2586,-0.058277228
23.82,2577,0.029138614
23.83,2590,-0.097128713
23.84,2577,0.029138614
23.85,2583,-0.029138614
23.86,2576,0.038851485
23.87,2581,-0.009712871
23.88,2582,-0.019425743
23.89,2583,-0.029138614
23.9,2588,-0.07770297
23.91,2580,0
23.92,2588,-0.07770297
23.93,2574,0.058277228
23.94,2592,-0.116554455
23.95,2575,0.048564356
23.96,2589,-0.087415842
23.97,2579,0.009712871
23.98,2588,-0.07770297
23.99,2570,0.097128713
24,2584,-0.038851485
24.01,2577,0.029138614
24.02,2584,-0.038851485
24.03,2576,0.038851485
24.04,2588,-0.07770297
24.05,2572,0.07770297
24.06,2584,-0.038851485
24.07,2576,0.038851485
24.08,2585,-0.048564356
24.09,2580,0
24.1,2583,-0.029138614
24.11,2582,-0.019425743
24.12,2579,0.009712871
24.13,2579,0.009712871
24.14,2576,0.038851485
24.15,2583,-0.029138614
24.16,2584,-0.038851485
24.17,2588,-0.07770297
24.18,2576,0.038851485
24.19,2583,-0.029138614
24.2,2575,0.048564356
24.21,2590,-0.097128713
24.22,2581,-0.009712871
24.23,2587,-0.067990099
24.24,2575,0.048564356
24.25,2587,-0.067990099
24.26,2578,0.019425743
24.27,2587,-0.067990099
24.28,2578,0.019425743
24.29,2583,-0.029138614
24.3,2579,0.009712871
24.31,2592,-0.116554455
24.32,2574,0.058277228
24.33,2589,-0.087415842
24.34,2582,-0.019425743
24.35,2589,-0.087415842
24.36,2576,0.038851485
24.37,2582,-0.019425743
24.38,2583,-0.029138614
24.39,2583,-0.029138614
24.4,2579,0.009712871
24.41,2582,-0.019425743
24.42,2582,-0.019425743
24.43,2580,0
24.44,2584,-0.038851485
24.45,2578,0.019425743
24.46,2583,-0.029138614
24.47,2577,0.029138614
24.48,2582,-0.019425743
24.49,2573,0.067990099
24.5,2590,-0.097128713
24.51,2580,0
24.52,2587,-0.067990099
24.53,2579,0.009712871
24.54,2589,-0.087415842
24.55,2569,0.106841584
24.56,2587,-0.067990099
24.57,2575,0.048564356
24.58,2592,-0.116554455
24.59,2579,0.009712871
24.6,2587,-0.067990099
24.61,2579,0.009712871
24.62,2585,-0.048564356
24.63,2579,0.009712871
24.64,2583,-0.029138614
24.65,2581,-0.009712871
24.66,2584,-0.038851485
24.67,2584,-0.038851485
24.68,2581,-0.009712871
24.69,2583,-0.029138614
24.7,2581,-0.009712871
24.71,2580,0
24.72,2579,0.009712871
24.73,2588,-0.07770297
24.74,2577,0.029138614
24.75,2587,-0.067990099
24.76,2579,0.009712871
24.77,2589,-0.087415842
24.78,2573,0.067990099
24.79,2591,-0.106841584
24.8,2578,0.019425743
24.81,2585,-0.048564356
24.82,2573,0.067990099
24.83,2586,-0.058277228
24.84,2575,0.048564356
24.85,2587,-0.067990099
24.86,2578,0.019425743
24.87,2585,-0.048564356
24.88,2576,0.038851485
24.89,2591,-0.106841584
24.9,2579,0.009712871
24.91,2584,-0.038851485
24.92,2580,0
24.93,2581,-0.009712871
24.94,2579,0.009712871
24.95,2583,-0.029138614
24.96,2583,-0.029138614
24.97,2579,0.009712871
24.98,2584,-0.038851485
24.99,2579,0.009712871
25,2583,-0.029138614
25.01,2573,0.067990099
25.02,2589,-0.087415842
25.03,2574,0.058277228
25.04,2587,-0.067990099
25.05,2578,0.019425743
25.06,2589,-0.087415842
25.07,2575,0.048564356
25.08,2590,-0.097128713
25.09,2574,0.058277228
25.1,2590,-0.097128713
25.11,2576,0.038851485
25.12,2589,-0.087415842
25.13,2573,0.067990099
25.14,2587,-0.067990099
25.15,2584,-0.038851485
25.16,2585,-0.048564356
25.17,2578,0.019425743
25.18,2588,-0.07770297
25.19,2581,-0.009712871
25.2,2583,-0.029138614
25.21,2584,-0.038851485
25.22,2580,0
25.23,2589,-0.087415842
25.24,2581,-0.009712871
25.25,2587,-0.067990099
25.26,2581,-0.009712871
25.27,2585,-0.048564356
25.28,2578,0.019425743
25.29,2589,-0.087415842
25.3,2578,0.019425743
25.31,2589,-0.087415842
25.32,2572,0.07770297
25.33,2591,-0.106841584
25.34,2583,-0.029138614
25.35,2589,-0.087415842
25.36,2577,0.029138614
25.37,2590,-0.097128713
25.38,2577,0.029138614
25.39,2585,-0.048564356
25.4,2583,-0.029138614
25.41,2588,-0.07770297
25.42,2578,0.019425743
25.43,2584,-0.038851485
25.44,2579,0.009712871
25.45,2577,0.029138614
25.46,2581,-0.009712871
25.47,2581,-0.009712871
25.48,2582,-0.019425743
25.49,2582,-0.019425743
25.5,2585,-0.048564356
25.51,2581,-0.009712871
25.52,2584,-0.038851485
25.53,2582,-0.019425743
25.54,2586,-0.058277228
25.55,2578,0.019425743
25.56,2587,-0.067990099
25.57,2574,0.058277228
25.58,2582,-0.019425743
25.59,2582,-0.019425743
25.6,2582,-0.019425743
25.61,2576,0.038851485
25.62,2588,-0.07770297
25.63,2580,0
25.64,2587,-0.067990099
25.65,2577,0.029138614
25.66,2587,-0.067990099
25.67,2574,0.058277228
25.68,2584,-0.038851485
25.69,2577,0.029138614
25.7,2583,-0.029138614
25.71,2575,0.048564356
25.72,2585,-0.048564356
25.73,2579,0.009712871
25.74,2581,-0.009712871
25.75,2583,-0.029138614
25.76,2583,-0.029138614
25.77,2582,-0.019425743
25.78,2573,0.067990099
25.79,2586,-0.058277228
25.8,2575,0.048564356
25.81,2586,-0.058277228
25.82,2577,0.029138614
25.83,2594,-0.135980198
25.84,2572,0.07770297
25.85,2585,-0.048564356
25.86,2571,0.087415842
25.87,2586,-0.058277228
25.88,2580,0
25.89,2592,-0.116554455
25.9,2578,0.019425743
25.91,2581,-0.009712871
25.92,2579,0.009712871
25.93,2587,-0.067990099
25.94,2581,-0.009712871
25.95,2588,-0.07770297
25.96,2582,-0.019425743
25.97,2585,-0.048564356
25.98,2583,-0.029138614
25.99,2584,-0.038851485
26,2580,0
26.01,2581,-0.009712871
26.02,2586,-0.058277228
26.03,2582,-0.019425743
26.04,2583,-0.029138614
26.05,2578,0.019425743
26.06,2587,-0.067990099
26.07,2575,0.048564356
26.08,2591,-0.106841584
26.09,2582,-0.019425743
26.1,2587,-0.067990099
26.11,2575,0.048564356
26.12,2592,-0.116554455
26.13,2581,-0.009712871
26.14,2587,-0.067990099
26.15,2573,0.067990099
26.16,2586,-0.058277228
26.17,2577,0.029138614
26.18,2585,-0.048564356
26.19,2573,0.067990099
26.2,2583,-0.029138614
26.21,2578,0.019425743
26.22,2589,-0.087415842
26.23,2580,0
26.24,2587,-0.067990099
26.25,2583,-0.029138614
26.26,2581,-0.009712871
26.27,2585,-0.048564356
26.28,2584,-0.038851485
26.29,2585,-0.048564356
26.3,2577,0.029138614
26.31,2585,-0.048564356
26.32,2576,0.038851485
26.33,2583,-0.029138614
26.34,2579,0.009712871
26.35,2588,-0.07770297
26.36,2575,0.048564356
26.37,2583,-0.029138614
26.38,2577,0.029138614
26.39,2589,-0.087415842
26.4,2579,0.009712871
26.41,2583,-0.029138614
26.42,2575,0.048564356
26.43,2586,-0.058277228
26.44,2572,0.07770297
26.45,2582,-0.019425743
26.46,2575,0.048564356
26.47,2586,-0.058277228
26.48,2574,0.058277228
26.49,2585,-0.048564356
26.5,2581,-0.009712871
26.51,2578,0.019425743
26.52,2582,-0.019425743
26.53,2582,-0.019425743
26.54,2579,0.009712871
26.55,2579,0.009712871
26.56,2581,-0.009712871
26.57,2579,0.009712871
26.58,2581,-0.009712871
26.59,2578,0.019425743
26.6,2585,-0.048564356
26.61,2578,0.019425743
26.62,2593,-0.126267327
26.63,2583,-0.029138614
26.64,2584,-0.038851485
26.65,2576,0.038851485
26.66,2590,-0.097128713
26.67,2581,-0.009712871
26.68,2589,-0.087415842
26.69,2577,0.029138614
26.7,2591,-0.106841584
26.71,2580,0
26.72,2584,-0.038851485
26.73,2581,-0.009712871
26.74,2586,-0.058277228
26.75,2579,0.009712871
26.76,2583,-0.029138614
26.77,2579,0.009712871
26.78,2587,-0.067990099
26.79,2583,-0.029138614
26.8,2575,0.048564356
26.81,2582,-0.019425743
26.82,2579,0.009712871
26.83,2585,-0.048564356
26.84,2581,-0.009712871
26.85,2584,-0.038851485
26.86,2580,0
26.87,2585,-0.048564356
26.88,2579,0.009712871
26.89,2586,-0.058277228
26.9,2582,-0.019425743
26.91,2587,-0.067990099
26.92,2574,0.058277228
26.93,2587,-0.067990099
26.94,2578,0.019425743
26.95,2585,-0.048564356
26.96,2582,-0.019425743
26.97,2586,-0.058277228
26.98,2576,0.038851485
26.99,2585,-0.048564356
27,2581,-0.009712871
27.01,2585,-0.048564356
27.02,2579,0.009712871
27.03,2585,-0.048564356
27.04,2582,-0.019425743
27.05,2585,-0.048564356
27.06,2578,0.019425743
27.07,2583,-0.029138614
27.08,2582,-0.019425743
27.09,2583,-0.029138614
27.1,2580,0
27.11,2583,-0.029138614
27.12,2587,-0.067990099
27.13,2584,-0.038851485
27.14,2580,0
27.15,2579,0.009712871
27.16,2588,-0.07770297
27.17,2579,0.009712871
27.18,2589,-0.087415842
27.19,2580,0
27.2,2589,-0.087415842
27.21,2578,0.019425743
27.22,2586,-0.058277228
27.23,2576,0.038851485
27.24,2587,-0.067990099
27.25,2577,0.029138614
27.26,2584,-0.038851485
27.27,2576,0.038851485
27.28,2586,-0.058277228
27.29,2577,0.029138614
27.3,2585,-0.048564356
27.31,2573,0.067990099
27.32,2580,0
27.33,2577,0.029138614
27.34,2587,-0.067990099
27.35,2585,-0.048564356
27.36,2580,0
27.37,2588,-0.07770297
27.38,2577,0.029138614
27.39,2584,-0.038851485
27.4,2578,0.019425743
27.41,2590,-0.097128713
27.42,2574,0.058277228
27.43,2581,-0.009712871
27.44,2577,0.029138614
27.45,2585,-0.048564356
27.46,2573,0.067990099
27.47,2583,-0.029138614
27.48,2573,0.067990099
27.49,2594,-0.135980198
27.5,2570,0.097128713
27.51,2586,-0.058277228
27.52,2571,0.087415842
27.53,2592,-0.116554455
27.54,2576,0.038851485
27.55,2580,0
27.56,2575,0.048564356
27.57,2582,-0.019425743
27.58,2578,0.019425743
27.59,2582,-0.019425743
27.6,2580,0
27.61,2579,0.009712871
27.62,2579,0.009712871
27.63,2581,-0.009712871
27.64,2581,-0.009712871
27.65,2577,0.029138614
27.66,2583,-0.029138614
27.67,2577,0.029138614
27.68,2586,-0.058277228
27.69,2576,0.038851485
27.7,2588,-0.07770297
27.71,2580,0
27.72,2587,-0.067990099
27.73,2574,0.058277228
27.74,2587,-0.067990099
27.75,2581,-0.009712871
27.76,2585,-0.048564356
27.77,2574,0.058277228
27.78,2583,-0.029138614
27.79,2579,0.009712871
27.8,2584,-0.038851485
27.81,2578,0.019425743
27.82,2583,-0.029138614
27.83,2581,-0.009712871
27.84,2581,-0.009712871
27.85,2581,-0.009712871
27.86,2585,-0.048564356
27.87,2585,-0.048564356
27.88,2581,-0.009712871
27.89,2579,0.009712871
27.9,2584,-0.038851485
27.91,2580,0
27.92,2584,-0.038851485
27.93,2589,-0.087415842
27.94,2577,0.029138614
27.95,2586,-0.058277228
27.96,2584,-0.038851485
27.97,2585,-0.048564356
27.98,2576,0.038851485
27.99,2586,-0.058277228
28,2577,0.029138614
28.01,2583,-0.029138614
28.02,2579,0.009712871
28.03,2586,-0.058277228
28.04,2581,-0.009712871
28.05,2586,-0.058277228
28.06,2578,0.019425743
28.07,2589,-0.087415842
28.08,2578,0.019425743
28.09,2587,-0.067990099
28.1,2577,0.029138614
28.11,2590,-0.097128713
28.12,2581,-0.009712871
28.13,2589,-0.087415842
28.14,2575,0.048564356
28.15,2588,-0.07770297
28.16,2585,-0.048564356
28.17,2585,-0.048564356
28.18,2582,-0.019425743
28.19,2575,0.048564356
28.2,2586,-0.058277228
28.21,2580,0
28.22,2582,-0.019425743
28.23,2576,0.038851485
28.24,2583,-0.029138614
28.25,2579,0.009712871
28.26,2585,-0.048564356
28.27,2576,0.038851485
28.28,2587,-0.067990099
28.29,2576,0.038851485
28.3,2591,-0.106841584
28.31,2576,0.038851485
28.32,2583,-0.029138614
28.33,2578,0.019425743
28.34,2584,-0.038851485
28.35,2577,0.029138614
28.36,2588,-0.07770297
28.37,2578,0.019425743
28.38,2585,-0.048564356
28.39,2577,0.029138614
28.4,2584,-0.038851485
28.41,2580,0
28.42,2585,-0.048564356
28.43,2585,-0.048564356
28.44,2578,0.019425743
28.45,2579,0.009712871
28.46,2583,-0.029138614
28.47,2585,-0.048564356
28.48,2574,0.058277228
28.49,2589,-0.087415842
28.5,2581,-0.009712871
28.51,2583,-0.029138614
28.52,2575,0.048564356
28.53,2586,-0.058277228
28.54,2574,0.058277228
28.55,2592,-0.116554455
28.56,2572,0.07770297
28.57,2589,-0.087415842
28.58,2578,0.019425743
28.59,2586,-0.058277228
28.6,2577,0.029138614
28.61,2588,-0.07770297
28.62,2577,0.029138614
28.63,2588,-0.07770297
28.64,2580,0
28.65,2586,-0.058277228
28.66,2577,0.029138614
28.67,2580,0
28.68,2581,-0.009712871
28.69,2582,-0.019425743
28.7,2576,0.038851485
28.71,2583,-0.029138614
28.72,2585,-0.048564356
28.73,2579,0.009712871
28.74,2584,-0.038851485
28.75,2579,0.009712871
28.76,2581,-0.009712871
28.77,2579,0.009712871
28.78,2579,0.009712871
28.79,2580,0
28.8,2588,-0.07770297
28.81,2575,0.048564356
28.82,2587,-0.067990099
28.83,2584,-0.038851485
28.84,2588,-0.07770297
28.85,2579,0.009712871
28.86,2582,-0.019425743
28.87,2582,-0.019425743
28.88,2583,-0.029138614
28.89,2577,0.029138614
28.9,2590,-0.097128713
28.91,2582,-0.019425743
28.92,2582,-0.019425743
28.93,2578,0.019425743
28.94,2584,-0.038851485
28.95,2579,0.009712871
28.96,2587,-0.067990099
28.97,2578,0.019425743
28.98,2583,-0.029138614
28.99,2582,-0.019425743
29,2584,-0.038851485
29.01,2585,-0.048564356
29.02,2580,0
29.03,2584,-0.038851485
29.04,2582,-0.019425743
29.05,2586,-0.058277228
29.06,2578,0.019425743
29.07,2590,-0.097128713
29.08,2577,0.029138614
29.09,2583,-0.029138614
29.1,2579,0.009712871
29.11,2585,-0.048564356
29.12,2578,0.019425743
29.13,2589,-0.087415842
29.14,2580,0
29.15,2586,-0.058277228
29.16,2576,0.038851485
29.17,2584,-0.038851485
29.18,2575,0.048564356
29.19,2588,-0.07770297
29.2,2581,-0.009712871
29.21,2581,-0.009712871
29.22,2581,-0.009712871
29.23,2581,-0.009712871
29.24,2585,-0.048564356
29.25,2580,0
29.26,2579,0.009712871
29.27,2582,-0.019425743
29.28,2583,-0.029138614
29.29,2578,0.019425743
29.3,2583,-0.029138614
29.31,2576,0.038851485
29.32,2579,0.009712871
29.33,2579,0.009712871
29.34,2584,-0.038851485
29.35,2576,0.038851485
29.36,2584,-0.038851485
29.37,2579,0.009712871
29.38,2585,-0.048564356
29.39,2578,0.019425743
29.4,2587,-0.067990099
29.41,2574,0.058277228
29.42,2588,-0.07770297
29.43,2573,0.067990099
29.44,2589,-0.087415842
29.45,2579,0.009712871
29.46,2584,-0.038851485
29.47,2581,-0.009712871
29.48,2580,0
29.49,2585,-0.048564356
29.5,2584,-0.038851485
29.51,2582,-0.019425743
29.52,2580,0
29.53,2582,-0.019425743
29.54,2584,-0.038851485
29.55,2583,-0.029138614
29.56,2579,0.009712871
29.57,2588,-0.07770297
29.58,2578,0.019425743
29.59,2581,-0.009712871
29.6,2581,-0.009712871
29.61,2585,-0.048564356
29.62,2584,-0.038851485
29.63,2592,-0.116554455
29.64,2579,0.009712871
29.65,2592,-0.116554455
29.66,2574,0.058277228
29.67,2588,-0.07770297
29.68,2576,0.038851485
29.69,2588,-0.07770297
29.7,2582,-0.019425743
29.71,2590,-0.097128713
29.72,2580,0
29.73,2586,-0.058277228
29.74,2576,0.038851485
29.75,2585,-0.048564356
29.76,2581,-0.009712871
29.77,2584,-0.038851485
29.78,2582,-0.019425743
29.79,2586,-0.058277228
29.8,2581,-0.009712871
29.81,2583,-0.029138614
29.82,2584,-0.038851485
29.83,2577,0.029138614
29.84,2582,-0.019425743
29.85,2577,0.029138614
29.86,2585,-0.048564356
29.87,2579,0.009712871
29.88,2584,-0.038851485
29.89,2580,0
29.9,2588,-0.07770297
29.91,2578,0.019425743
29.92,2585,-0.048564356
29.93,2577,0.029138614
29.94,2586,-0.058277228
29.95,2578,0.019425743
29.96,2583,-0.029138614
29.97,2574,0.058277228
29.98,2590,-0.097128713
29.99,2576,0.038851485
