Time (s),Acceleration x (m/s^2),Acceleration y (m/s^2),Acceleration z (m/s^2)
24.26999999999999,0.21931147563791467,-0.07768276640145745,9.534731500805059
24.28,0.21240407878030385,-0.09219791146276052,9.543383913073214
24.28999999999999,0.21188647714567546,-0.07960480773093564,9.53843142327555
24.29999999999999,0.20557889178137517,-0.07750508811133143,9.546819529407863
24.309999999999988,0.21298987685799717,-0.07637979026591624,9.554405850126109
24.319999999999993,0.23653248290878748,-0.0649315877551747,9.554148123273546
24.32999999999999,0.1998728868107332,-0.09779217050445707,9.53247988802582
24.339999999999993,0.2177325944115116,-0.08547886697601167,9.55504055121408
24.34999999999999,0.21981813535147968,-0.08951091837413673,9.561027933515396
24.360000000000003,0.2295072006804358,-0.07724273882149278,9.531943929021875
24.369999999999997,0.22568339885102248,-0.08228912687657833,9.549501963633512
24.379999999999985,0.21571756377366175,-0.08371135639166832,9.536047204985348
24.389999999999997,0.21852883004453272,-0.09258335230794439,9.563428743961197
24.39999999999999,0.23413473765332957,-0.06893026368890849,9.53913861770247
24.409999999999997,0.21381650616260064,-0.11165046060480847,9.543088855132837
24.419999999999987,0.21049719408538856,-0.08716550512690563,9.5564477104826
24.429999999999993,0.21229225841341645,-0.08216493775043239,9.541917076926167
24.43999999999999,0.22743535965033607,-0.07585255173834272,9.528623755134463
24.449999999999996,0.20422534729654837,-0.100727818683729,9.547714213530568
24.45999999999999,0.22220290259491002,-0.0859297897561891,9.534032450951056
24.469999999999995,0.21418905509153832,-0.0778128283306061,9.540631342114521
24.479999999999993,0.2196248753350882,-0.0911078445338831,9.546126023725757
24.48999999999999,0.20584861815983854,-0.09307047716031464,9.545800499100112
24.49999999999999,0.21028697619423528,-0.09039869290997982,9.549549263814713
24.51,0.2335625029470906,-0.06613951028444565,9.54834125594344
24.519999999999996,0.2189246191377235,-0.10259687122243809,9.564101568350013
24.529999999999998,0.2166773630665186,-0.10121759923312067,9.552760366157884
24.540000000000003,0.2197559434105086,-0.09054586472516268,9.547601523515416
24.549999999999997,0.2376079191770514,-0.06481291147191807,9.54421096339056
24.55999999999999,0.2047729775472324,-0.08286244956838432,9.539029638061548
24.569999999999993,0.21726129447117873,-0.09141299748082034,9.55165593483622
24.58,0.2311894104034184,-0.07274935574618434,9.545623497196026
24.59,0.20210749524079916,-0.08434001430991639,9.534150226736012
24.6,0.20729325542744031,-0.0898294142010958,9.543965808680243
24.610000000000003,0.2160811845562292,-0.06254567186951013,9.52374976961587
24.619999999999994,0.23019843706783288,-0.0818606755009953,9.541798531764435
24.629999999999992,0.21604204544273484,-0.07318395909757554,9.542427634827018
24.639999999999997,0.22898840284933483,-0.06674897518611357,9.532071365208557
24.649999999999995,0.22348570079316749,-0.08546595730317642,9.531607443445123
24.659999999999993,0.22445609122759164,-0.09539712041086797,9.564787054136398
24.669999999999995,0.24426244235730163,-0.08395541946908022,9.546378596137426
24.68,0.37397567236419693,-0.08096813951373338,9.549979005310727
24.689999999999998,0.47522201217615423,-0.09254542667318308,9.548202340086537
24.7,0.5321967233693827,-0.057767585806876166,9.531752280644293
24.70999999999998,0.4439517290862571,-0.06413252924365745,9.544227831778446
24.719999999999988,0.30508388443112483,-0.07340270893512342,9.53719926218996
24.73,0.1787129530237662,-0.08685922551733208,9.54281507217872
24.739999999999988,0.16067968606543964,-0.08313351053912982,9.56560250328719
24.750000000000007,0.18688956011591928,-0.0961382757070023,9.543215640794047
24.76,0.2130000975622854,-0.08515658645060556,9.553253716142368
24.769999999999996,0.17121367120129202,-0.07251924404432752,9.541446163551628
24.77999999999999,0.05285222412329414,-0.09212895339553744,9.548669378458165
24.789999999999996,-0.012262802281222222,-0.08678938031124882,9.568081333557124
24.79999999999999,-0.011153937212231341,-0.0926950981305827,9.551365801733176
24.81,-0.005706915079671503,-0.0986694928910872,9.543105485392209
24.820000000000004,0.019474117256920227,-0.08329631248088992,9.544768589789786
24.830000000000005,-0.014410758701022793,-0.09393291543680402,9.549221852657164
24.839999999999993,-0.06889899927392311,-0.1028514557786819,9.567990901584011
24.85,-0.09776023630905793,-0.06727561361945571,9.533375216424881
24.860000000000007,-0.07803643628452582,-0.08010626364931245,9.536678911072732
24.869999999999994,-0.03339363637755125,-0.0969828880571466,9.580262556674734
24.88,0.04964412199707944,-0.0720753488987034,9.537061944254143
24.890000000000008,0.10523325076053212,-0.09241991556988259,9.537832127992312
24.899999999999995,0.12928421210451038,-0.08791668651340799,9.548885986464215
24.90999999999999,0.0791897846264071,-0.09987874416891687,9.554566967335523
24.919999999999984,0.07686427806202371,-0.08589413833462843,9.538537898979072
24.92999999999999,0.1332307391905111,-0.08692339183032413,9.548635725894094
24.939999999999998,0.21041786913002525,-0.08740402213680212,9.54393997557289
24.949999999999996,0.25222715253469724,-0.067954368153518,9.53606866387978
24.959999999999994,0.2638216110643443,-0.0765135928775635,9.555888842611356
24.969999999999995,0.2894767672595682,-0.09851158398140168,9.559268082682166
24.979999999999997,0.3534732329612876,-0.08202993359695913,9.524832291575514
24.989999999999984,0.4082557305816228,-0.08437143691735172,9.546896008199955
24.999999999999996,0.498820953662,-0.07502282652898304,9.546976288107002
25.01,0.5639422134104563,-0.07662910298623446,9.551505865456235
25.019999999999992,0.6375256650197038,-0.0753869738713921,9.551644379976869
25.029999999999998,0.6272218918859932,-0.07567094891490032,9.54127355641623
25.039999999999996,0.6783783778135395,-0.08811302646100357,9.561631625925655
25.049999999999997,0.6793994115283956,-0.053798759786503,9.521925938348758
25.05999999999999,0.7076359872505105,-0.07384831947972734,9.560987475446815
25.069999999999993,0.7542553559245463,-0.071391345663468,9.52829936808576
25.08,0.7653761910391134,-0.0701498185366259,9.547514266418135
25.089999999999993,0.8280344307468513,-0.06403539608257279,9.54397946886969
25.099999999999994,0.7058932172040847,-0.05234518512901391,9.526474704108141
25.11,0.4805224570589081,-0.0826854685231856,9.545586504894318
25.119999999999994,0.37205175263962315,-0.08212504340015613,9.557415335034321
25.12999999999999,0.36160075683111265,-0.10761379538446121,9.541780624546858
25.13999999999999,0.4542782998118179,-0.060921397574804755,9.530940088306725
25.149999999999995,0.45825240032147163,-0.07849169645922942,9.56079262335965
25.16,0.4009888302295591,-0.09081639947829472,9.559922470654506
25.169999999999998,0.22415065445833027,-0.08703916408297793,9.533445617042833
25.179999999999993,0.17397380750018637,-0.09191727322635576,9.557258173201092
25.19,0.1488162961639261,-0.07755338782347414,9.550525471798961
25.19999999999999,0.09399399756828376,-0.10171864272825376,9.5599321222679
25.209999999999994,0.04542040488081855,-0.08036206827280733,9.544914015102128
25.220000000000002,-0.0692526683397307,-0.110580981697279,9.548081376330765
25.229999999999997,-0.14699713209441445,-0.08152009887017583,9.545290691650214
25.24,-0.24327880563775062,-0.10498349621003028,9.531956120894847
25.24999999999999,-0.3023221082104771,-0.09363333597256669,9.557293154161655
25.26,-0.33475406551003223,-0.10779007989469215,9.553881210496737
25.26999999999999,-0.4721798319759394,-0.11144928666733325,9.558950327107167
25.279999999999998,-0.6891025475752204,-0.10146775411188143,9.548809963015044
25.289999999999985,-0.5353325375074983,-0.09805141997216466,9.554425774940805
25.299999999999997,-0.3464689689971953,-0.0997137914454541,9.546011215278064
25.30999999999999,-0.2930044492955423,-0.07934228214175089,9.55292347706918
25.320000000000004,-0.22968235741734222,-0.09717984211093636,9.560485793062671
25.32999999999999,-0.25328552112720043,-0.07508901542888873,9.576370368220793
25.339999999999986,-0.33447804600540804,-0.09549033495252832,9.542289193501883
25.35,-0.3387750139776869,-0.09066406805024216,9.55940405308593
25.360000000000007,-0.27829277213224685,-0.07936762177259402,9.54733463472247
25.370000000000005,-0.23255173013723843,-0.09113618401621008,9.53630931554408
25.379999999999995,-0.13364519616672302,-0.07603323951886122,9.565146793200237
25.39,-0.07049512748301706,-0.07341572585409768,9.53014280650379
25.399999999999988,-0.018018476586075177,-0.09708386516277653,9.555031792746734
25.40999999999999,0.05936856367188821,-0.08288218583312783,9.538192328438196
25.41999999999999,0.12244690871876558,-0.09191241832598815,9.576491085834233
25.429999999999993,0.19989437833663629,-0.06888492842510832,9.521804899302564
25.44,0.32214127406180076,-0.07681518617316178,9.575651679166933
25.449999999999992,0.40904079195078114,-0.07519749881166732,9.552068077641248
25.459999999999994,0.6034235542090739,-0.0707824085853002,9.554758663138784
25.47,0.8408117191567324,-0.06309575746430265,9.529726091024711
25.479999999999983,0.8011863165058551,-0.0619926805025383,9.536654210696693
25.489999999999995,0.7687705315423589,-0.060965996332374345,9.546412679781099
25.500000000000004,0.9338914353285565,-0.061597973873388466,9.548542676493048
25.510000000000005,1.034189459670729,-0.06037583777983048,9.550349611693914
25.51999999999999,1.064865114291964,-0.059663829874065204,9.519497390599803
25.53,1.1287159882314575,-0.05832273372821148,9.552425933332787
25.539999999999996,1.220766141033509,-0.04589616151302762,9.530757741549284
25.550000000000004,1.2918605040833226,-0.050035181099168255,9.52605911508615
25.55999999999999,1.4200539676913602,-0.05725050895225123,9.560358172766074
25.570000000000007,1.3788309440748372,-0.04764816448187881,9.519253336266848
25.580000000000002,1.0417710287229438,-0.0654086138829011,9.539352426994192
25.589999999999996,0.864093936173083,-0.08396333666918758,9.56516508302645
25.599999999999994,0.7934102388685146,-0.059114270925643905,9.540561368777391
25.609999999999992,0.7506143603829154,-0.05617346718371733,9.53290247299916
25.619999999999994,0.7566158901115694,-0.06988321025049331,9.552667450814187
25.629999999999992,0.7568986839495792,-0.06193543204544802,9.526591985656431
25.639999999999997,0.67995521323646,-0.052207698968438215,9.532517846477585
25.649999999999995,0.46128483396316416,-0.0806073499698708,9.549149439381637
25.66000000000001,0.28918959775844993,-0.09773305554956951,9.551717628866028
25.669999999999995,0.14354082143899027,-0.05548410865107259,9.531816392552056
25.68,0.023751431868956823,-0.09987172171347054,9.545426402175353
25.689999999999994,-0.13621134800210713,-0.10210226725864796,9.557719897762087
25.699999999999985,-0.2684129467724064,-0.06861238470359952,9.56794998078042
25.71000000000002,-0.3920927059412866,-0.09222692624155579,9.54379556893441
25.72,-0.4577715200252268,-0.09636871739040574,9.545008654944603
25.73,-0.5662378944123827,-0.11538879050143891,9.562545651589513
25.739999999999988,-0.6746879379270599,-0.1047905613675692,9.553706206940445
25.750000000000007,-0.7893993524247803,-0.11455396615468946,9.557723270738352
25.76,-0.8246147111009015,-0.08420309234251944,9.57192505827422
25.769999999999985,-0.977379778783611,-0.1127980261189502,9.573381600217942
25.779999999999998,-1.0969854520779547,-0.12614194842227625,9.564349196650547
25.79,-0.8790166578887783,-0.0839589395437033,9.558086274054768
25.8,-0.47358063215870466,-0.0955611038318534,9.563542442803513
25.809999999999988,-0.3838234272034831,-0.12278077788971678,9.531410992200952
25.81999999999999,-0.4851053611657961,-0.09154240240503461,9.570495211125927
25.82999999999999,-0.524119472203634,-0.08112088603140889,9.563500416613364
25.839999999999993,-0.5140605276708582,-0.12445056812528181,9.551970532152374
25.849999999999998,-0.40854229011755877,-0.09531316439578573,9.554181519962505
25.860000000000007,-0.32426013492803585,-0.1075819759181086,9.562129488956696
25.870000000000008,-0.2572002953838449,-0.07474578930242308,9.567584845530678
25.879999999999995,-0.17945602457793292,-0.09247542033823797,9.537075397988206
25.889999999999993,-0.06091657243416865,-0.094659512673323,9.556658645386031
25.899999999999995,0.08561229166090624,-0.08232356426860483,9.532814171240453
25.90999999999999,0.22105870944511546,-0.09058546697640062,9.56184650965592
25.919999999999995,0.32759747650205173,-0.08658049301516542,9.549290805510624
25.929999999999993,0.40807725973698383,-0.0743828555400548,9.528005756191115
25.940000000000005,0.5161751627433834,-0.08273443209942702,9.543307970126358
25.949999999999992,0.7332578795651845,-0.049210965202291714,9.553266540502625
25.959999999999994,0.9238950483374142,-0.06700253221196105,9.521047805484042
25.969999999999988,0.895414606988428,-0.0741904864170203,9.535148607210532
25.979999999999993,1.0074276368146706,-0.06784382636804522,9.559753089277493
25.989999999999995,1.1829387939815508,-0.05712684313438584,9.549345545751232
26.000000000000004,1.1896027056089753,-0.051047950212964203,9.532010904317222
26.01000000000001,1.2278903063659725,-0.05835036813429631,9.524264888371464
26.019999999999996,1.3442989865160977,-0.049281947118415194,9.535070434845167
26.029999999999998,1.3368415986156366,-0.052833683408646616,9.51961866847104
26.03999999999999,1.370671961203808,-0.054670842841741334,9.525872251982655
26.04999999999999,1.5019283301400743,-0.05462788725892772,9.545032587315248
26.060000000000002,1.2379436688288583,-0.0687988572716518,9.53615280363629
26.070000000000004,0.950955018220095,-0.0628353388254223,9.554683422293376
26.080000000000002,0.7616801110873338,-0.07050002399981851,9.534464371345566
26.089999999999993,0.7909591493097416,-0.0624202733836,9.549277472703617
26.09999999999999,0.7582708371828892,-0.06598975003344386,9.529163284573956
26.10999999999999,0.6718955167169905,-0.07012995894160233,9.542742263077717
26.120000000000005,0.6350888978355589,-0.07438339750876102,9.55613702704364
26.12999999999999,0.5665771988325924,-0.0594241825312443,9.534557318624923
26.139999999999997,0.3388770847106751,-0.0705335813811973,9.566443888789532
26.150000000000002,0.16697115437189178,-0.1086841295648561,9.56691330622376
26.159999999999997,0.09647128623806797,-0.0748086708369841,9.54022451757498
26.169999999999998,0.04246045015920615,-0.07876026053631315,9.553705097402105
26.179999999999982,-0.10917569796757293,-0.11132915930400095,9.558872804933785
26.189999999999994,-0.25850631281589836,-0.08843495557076764,9.54987845480367
26.2,-0.40825328870448774,-0.11314908415395403,9.566523605393474
26.21,-0.46429712744115464,-0.09783129686994224,9.559694363955614
26.220000000000002,-0.5570576025971344,-0.08800868877649681,9.559115425198506
26.23,-0.649463540100941,-0.12150324567283739,9.548371479782777
26.240000000000002,-0.7304951543439021,-0.09307210149832945,9.557793215951412
26.24999999999999,-0.8120774310417279,-0.06463489487177185,9.562466791277926
26.26,-0.9494634514451551,-0.13381368715145603,9.548277918505855
26.26999999999999,-1.074405905698909,-0.10536946838354207,9.557076002793071
26.280000000000005,-0.9202232528106984,-0.11057852134643861,9.556971231643004
26.29,-0.5500846917328234,-0.09601701268103209,9.562774553836059
26.299999999999997,-0.3867614428731406,-0.10005475408195418,9.538282964193625
26.30999999999999,-0.48310125862352743,-0.11409000447212872,9.560476197405183
26.319999999999993,-0.5382834346501608,-0.09477061589383222,9.558854240948387
26.330000000000002,-0.509667494196443,-0.10199498118599283,9.56183340222495
26.339999999999993,-0.43011144269331386,-0.08946419547517423,9.564554600816624
26.349999999999998,-0.31687578156534046,-0.1268671678382546,9.562780089708166
26.360000000000014,-0.27667996461126076,-0.08779803510351158,9.559124425010708
26.37,-0.17278517478748426,-0.0716641248564624,9.55871401037906
26.37999999999999,-0.09195092052705678,-0.10076210509035301,9.557369694224551
26.38999999999999,0.05963840348856486,-0.08079389983015013,9.553316668452652
26.399999999999988,0.19055426337957973,-0.06565574945877801,9.535835857722445
26.41,0.31088455862128755,-0.0700606043426916,9.574795600774898
26.419999999999998,0.3514836630133873,-0.08512246821778678,9.554790781659744
26.43,0.4922639210539954,-0.08089177672717948,9.545452773336573
26.439999999999994,0.7090290540766432,-0.054336384553673095,9.543471343050372
26.45,0.9383059180646298,-0.05799154882140413,9.547954988496487
26.459999999999987,0.913469471424487,-0.06519665141123322,9.51445820501233
26.469999999999995,0.9174799303604602,-0.056805611507547954,9.557976897164341
26.480000000000004,1.1337859670250878,-0.06003787368068289,9.54459264290091
26.489999999999995,1.1500432543104524,-0.07626523983835731,9.549821817175049
26.500000000000004,1.1607446510921944,-0.061124411852147606,9.545178657094052
26.51,1.2856734189088208,-0.06313758022136497,9.548282285101086
26.519999999999996,1.3948203102229426,-0.055585215296621436,9.556379444873318
26.529999999999998,1.370915478068057,-0.05856383608033505,9.521292905753688
26.54,1.4345708801554293,-0.06037607511911191,9.559819192196331
26.55,1.459855037230654,-0.0529006906598921,9.545615755827855
26.55999999999999,1.173006368425523,-0.04908559910463201,9.538345556312493
26.569999999999993,0.8973922456699582,-0.07154213194917901,9.54962235569946
26.579999999999995,0.8005837793136867,-0.06431858193025951,9.51547237424897
26.589999999999993,0.8411633281482401,-0.059940808145826203,9.535914982137157
26.599999999999977,0.7655114628056123,-0.07475961238955382,9.548491968986406
26.609999999999992,0.6794293916130902,-0.06324934828648937,9.53265836659497
26.61999999999999,0.6273187736306844,-0.07670160943063492,9.561329937242323
26.629999999999995,0.5782461414874155,-0.05884787977699427,9.544191718195808
26.639999999999997,0.40130229561484443,-0.0805093139433456,9.567895014486027
26.649999999999988,0.2812076746569951,-0.07900270469333688,9.588130051411978
26.65999999999999,0.189829571848563,-0.06051561896693802,9.527572830527362
26.669999999999984,0.02291550861064506,-0.08944418431860696,9.551151083152185
26.679999999999993,-0.035918973213466265,-0.0780078642455207,9.54681299363117
26.69,-0.20495113638524445,-0.10297634163681448,9.547586524307782
26.700000000000003,-0.3360475549311925,-0.0987305632490922,9.557451164946144
26.71,-0.4368455439727541,-0.1099585706982245,9.565506979413783
26.719999999999995,-0.4935648869545121,-0.0854558260753382,9.566982470561294
26.730000000000004,-0.60129890393325,-0.09300003670082556,9.543199020583549
26.739999999999984,-0.6778079520013848,-0.12272900729245574,9.548466099845793
26.749999999999996,-0.7932012163588853,-0.10886337449424076,9.555122084652828
26.76,-0.844001883126464,-0.10498209371268098,9.569822854523185
26.77,-1.006357974322418,-0.12424417467907578,9.566342270536724
26.77999999999999,-1.0488991197748936,-0.09277737359057688,9.549764708750823
26.790000000000003,-0.7455718920071828,-0.1006305033612146,9.5625905756942
26.799999999999986,-0.40801902790857664,-0.11915859679845026,9.562118920470033
26.809999999999985,-0.4214577667611532,-0.09138929235731161,9.533115356009104
26.819999999999997,-0.5317239821734266,-0.11521646641666357,9.558753242972012
26.830000000000005,-0.5077232763451428,-0.09919973408727101,9.56333915243804
26.84,-0.47669447128980064,-0.1045868827340207,9.555578918499918
26.849999999999994,-0.3671581084511218,-0.10785541947714562,9.559280778715719
26.860000000000003,-0.28778138157906646,-0.08115518984732291,9.557410217415661
26.869999999999994,-0.2192788538009633,-0.09155014874854565,9.555124426127929
26.87999999999999,-0.11312553112394483,-0.1014721174947942,9.557497146868304
26.89,-0.025274486427156535,-0.09074516036430592,9.545142895952742
26.899999999999995,0.1239168993653106,-0.08447457774590283,9.549385257551698
26.909999999999997,0.2744630023863249,-0.06548029066834098,9.570427470421963
26.919999999999995,0.34018355277313544,-0.10135313003131559,9.541032617680502
26.92999999999999,0.446688514211478,-0.0734174196750461,9.533098930007998
26.939999999999998,0.6119673474267626,-0.06501301126461395,9.555598032803692
26.94999999999999,0.8750140727422462,-0.05353396744321601,9.542130087869422
26.95999999999999,0.963136756568941,-0.06671440610069751,9.521330202768544
26.97,0.8919087427640704,-0.060872888286011895,9.558032836011128
26.980000000000008,1.0232266860433867,-0.06759041607897968,9.533195513615464
26.989999999999995,1.138240137032841,-0.05322483976985352,9.54220561256763
26.99999999999999,1.1518072110159558,-0.07134431129931505,9.53943550597027
27.009999999999994,1.199629903461319,-0.06542260278359649,9.55224325396146
27.019999999999985,1.3124660747651737,-0.04641551525396194,9.52578683644502
27.03,1.3714048093240057,-0.04925703141798275,9.545015636290561
27.040000000000003,1.384904946329529,-0.04827634550283459,9.506062592964046
27.049999999999997,1.5328117614375014,-0.05361287992486938,9.540190842978696
27.059999999999995,1.4157176517131316,-0.04454693152693754,9.527141138029325
27.069999999999993,1.009927802059126,-0.06558471056864311,9.537705270473914
27.07999999999999,0.7931438516403567,-0.05743655622255345,9.53799868389882
27.089999999999975,0.7326444987553706,-0.08176555899193766,9.537635193203807
27.099999999999987,0.8123545493120864,-0.07764847158079771,9.572710952509729
27.109999999999992,0.7279259359505484,-0.05744264823571381,9.52682541483147
27.12,0.6726013992458109,-0.057690323437704215,9.55338488164041
27.13,0.6298436936348623,-0.06407367380952578,9.54257461512836
27.139999999999993,0.533378336087069,-0.07839884169781017,9.536200528782636
27.149999999999988,0.3447285556866666,-0.08978856014227975,9.565913661958698
27.159999999999986,0.21185779374577707,-0.07978623152319857,9.54180648293564
27.169999999999987,0.07090971861356779,-0.06295636319428632,9.530860885895716
27.180000000000007,-0.00564572458941927,-0.08535364822160921,9.550710229365562
27.19,-0.18744344445303845,-0.09635926812562762,9.537712457819316
27.199999999999996,-0.3371703492426819,-0.10183475790393243,9.587013626381353
27.209999999999987,-0.3889966313463902,-0.08910507812750017,9.552667515577541
27.22,-0.4404241773559716,-0.09001680208916116,9.554105330958935
27.22999999999999,-0.6172823580408668,-0.11425862646598973,9.557415635853465
27.23999999999999,-0.6816020295803595,-0.10016391733460564,9.554726045887387
27.24999999999999,-0.7968316464269576,-0.1229447762617192,9.570010863409939
27.260000000000005,-0.8165621152696398,-0.11063854252682967,9.565319729284708
27.26999999999999,-0.9358991454333261,-0.0972854249467563,9.562257047894612
27.279999999999998,-1.0681213778826104,-0.10125655859169379,9.569554626540677
27.28999999999999,-0.780406663322095,-0.10823207882415115,9.563998723913862
27.29999999999999,-0.46415830919304146,-0.08983067068611174,9.563075611532902
27.309999999999995,-0.4305429253238514,-0.12565196417511132,9.567901716628008
27.319999999999997,-0.48487361860192685,-0.10263542335725791,9.548430686752413
27.329999999999995,-0.5155524309162283,-0.11359960838759178,9.552713225919886
27.340000000000007,-0.467572952061308,-0.0788652969411835,9.53851419586255
27.349999999999994,-0.3952228545506092,-0.10111626492190169,9.565622465389653
27.359999999999992,-0.3176796327436089,-0.08085219374429659,9.535236328241117
27.369999999999987,-0.23260309583558006,-0.08012500562362554,9.541036565414542
27.37999999999999,-0.17410570383531634,-0.10636810569715896,9.550218882995846
27.39,-0.06557521598791248,-0.08100923387079892,9.548583401330895
27.399999999999984,0.08436657828927023,-0.10736372679053093,9.560045089677306
27.409999999999997,0.2379895773957279,-0.0528348894341388,9.550578887618897
27.419999999999987,0.321090553597564,-0.09254698398483378,9.549046919390694
27.430000000000003,0.4082303995633594,-0.06948303694163863,9.53462060713608
27.439999999999984,0.5489295187604215,-0.06729649306538613,9.552800981359795
27.449999999999992,0.7982732210266674,-0.057613802988049634,9.54403016613349
27.459999999999994,0.9946000306646295,-0.07622504309021967,9.548293549309989
27.469999999999995,0.9171902315507157,-0.06995370827639417,9.541139131146286
27.479999999999993,0.9869123070683163,-0.05270606296046309,9.53865677651237
27.48999999999999,1.133104063642906,-0.06250112854282537,9.54267994151176
27.49999999999999,1.1613645922738052,-0.07014578713317073,9.544305693139886
27.51,1.2178019125728252,-0.058396712524327335,9.542460766044028
27.51999999999999,1.260553091755643,-0.04888205823270332,9.532492219270898
27.529999999999994,1.357677347746184,-0.058002460126446276,9.542455115593352
27.539999999999992,1.384054221748639,-0.06008628419995448,9.525256031305979
27.549999999999994,1.5180842418016194,-0.061873094202812,9.548538142540389
27.55999999999999,1.4430770776866353,-0.051130681585201364,9.515238751058074
27.569999999999993,1.0771776873020842,-0.06160237907134382,9.538707317742606
27.579999999999977,0.763490239191964,-0.08588544478242753,9.547463802462861
27.589999999999986,0.7620703643472959,-0.059452043497426145,9.55342899039602
27.599999999999987,0.7981651388790078,-0.06865269303610817,9.539445876719764
27.61,0.6750780231554161,-0.0944445004713411,9.532144282754304
27.62,0.6806145474583973,-0.05333943289165446,9.544362031609612
27.629999999999995,0.6433851072878861,-0.06415464470442911,9.537170498824661
27.63999999999999,0.5074943783514382,-0.06747882899003925,9.540181025018548
27.64999999999998,0.27451352656844596,-0.08636865905164924,9.56853603896793
27.659999999999986,0.15815727782637742,-0.07370235402605423,9.54139322148645
27.669999999999998,0.06014723477279926,-0.07662521336424967,9.542798277121669
27.679999999999996,-0.04364307432214668,-0.09171162237118913,9.54019680240378
27.690000000000005,-0.21264400748398313,-0.10629490271508969,9.561168524434143
27.69999999999999,-0.33232177604921764,-0.08378664369456525,9.55166646233871
27.71,-0.41830225365342666,-0.10363462294515112,9.550895679823869
27.71999999999998,-0.4788952858128511,-0.0833351977596639,9.555392486422145
27.729999999999993,-0.6027209432602619,-0.10998160687025721,9.540838252120306
27.73999999999999,-0.7121763116502109,-0.11131983327725337,9.555769387445618
27.749999999999993,-0.813376572965961,-0.1213539086481571,9.570701326625334
27.75999999999999,-0.8603118068387203,-0.10831668815890108,9.555841400453552
27.76999999999999,-1.034562631436774,-0.1149012664090068,9.549377116912934
27.779999999999987,-0.9688135558400592,-0.08669902323998843,9.567099703208019
27.79,-0.5923361639748721,-0.0929912250106301,9.56187277720488
27.799999999999997,-0.4099570629334012,-0.10718594080853291,9.565874517925348
27.80999999999999,-0.4942647165547142,-0.10994174574323833,9.546631767633802
27.819999999999997,-0.5068863786112949,-0.09651831606224137,9.566341226883651
27.829999999999988,-0.503387408289898,-0.08666532376531219,9.546175792602849
27.839999999999993,-0.4402337479781929,-0.12609370553022417,9.563726637813351
27.849999999999994,-0.3243089319691331,-0.09704963543320021,9.552297994257945
27.85999999999999,-0.23427325216214975,-0.0893304161032806,9.553391430622032
27.869999999999994,-0.14906636410875143,-0.10271394902872884,9.564792852988218
27.88,-0.060834667237166094,-0.08460359248668521,9.556501946847204
27.889999999999986,0.05358439126796276,-0.0746782236305897,9.53911097347314
27.900000000000002,0.19789650092392372,-0.07333079196759469,9.56514083033638
27.90999999999999,0.28790626942314046,-0.08873895093900419,9.552407418280788
27.919999999999995,0.37207891375530916,-0.09195320579358544,9.539535018881804
27.929999999999986,0.5640828456746386,-0.07112508669465403,9.53774275292161
27.939999999999998,0.7755193647407402,-0.060835121825621216,9.546342922698646
27.95,0.9581996678675816,-0.06059984366580466,9.537155053788418
27.959999999999994,0.8762641723299402,-0.06983705581591249,9.538521164181825
27.970000000000002,0.9727967538509559,-0.043716089389500196,9.532991396081854
27.979999999999993,1.1241127026056108,-0.06999290776624836,9.533171859476335
27.989999999999988,1.1639605219209623,-0.055841285259310335,9.55277096691511
27.99999999999999,1.2023776517879878,-0.05774616867982972,9.54316780581216
28.01,1.250047948219647,-0.061112082152818034,9.53707608309848
28.02,1.3730166477144445,-0.0564411498787927,9.538256297281498
28.029999999999994,1.3494653381248074,-0.055896635725630105,9.522410930422314
28.040000000000006,1.4717985585809217,-0.06096998916168544,9.548285503037848
28.049999999999994,1.4750072553900109,-0.07413599137080669,9.55975882256702
28.05999999999999,1.157711035932506,-0.05005978910061184,9.522693850834418
28.069999999999986,0.7956910126873518,-0.06816581114637764,9.563319779029735
28.079999999999988,0.725546539577007,-0.07019802956631244,9.5515119667545
28.089999999999996,0.7969766845101879,-0.05789935227886501,9.558758071942279
28.099999999999998,0.7119721374610136,-0.10127143273706503,9.541448421916208
28.110000000000003,0.698160424352692,-0.05383906307994309,9.551545270275101
28.119999999999994,0.6309615688817287,-0.07190127329200957,9.55414931265124
28.129999999999995,0.5345363769248211,-0.07152738859959908,9.538696422153798
28.139999999999976,0.3272405263394877,-0.07963300078269324,9.56507192393493
28.149999999999988,0.21720186652333984,-0.07865588136892351,9.55581471141964
28.159999999999993,0.10847638541023005,-0.07779752225273256,9.539364965775608
28.169999999999995,0.004021083685504453,-0.10278254976380063,9.55743152076211
28.180000000000003,-0.09664376749143658,-0.10870440767166573,9.550616297081524
28.189999999999994,-0.26386881992681094,-0.08308232234502055,9.54793216959486
28.199999999999996,-0.36361903480280866,-0.11799476899624016,9.565058164352486
28.209999999999987,-0.44628833221830494,-0.08448587286174063,9.547356917532007
28.219999999999988,-0.5372809660108774,-0.11010628407863104,9.573700404773792
28.229999999999993,-0.6311327853916645,-0.09559215634200459,9.54459779272314
28.239999999999995,-0.7710380387849856,-0.1254936702008489,9.568283167237867
28.250000000000004,-0.8246815360620038,-0.0924691680719777,9.550603250858199
28.26,-0.8769440573360752,-0.11167712558251547,9.564997844531883
28.26999999999999,-1.06615658586839,-0.12996931159662065,9.551992539676867
28.279999999999987,-0.9846361731081593,-0.09203793917009052,9.573992050199491
28.29000000000001,-0.6619944445236671,-0.09812480599162084,9.557051845438943
28.299999999999997,-0.4317766390701351,-0.0803855281162511,9.534060358798312
28.310000000000002,-0.48247760639886533,-0.11460400239719902,9.562469649149483
28.320000000000007,-0.49147250437050655,-0.09569099177550307,9.567328652460418
28.329999999999995,-0.5033678475227299,-0.0788443149352995,9.533558969130102
28.339999999999993,-0.46272195945544736,-0.11189546904818826,9.56436593597015
28.349999999999984,-0.3495446745236069,-0.09054072853664775,9.555232725181733
28.35999999999999,-0.2877967328895417,-0.09602376137359814,9.551353200060888
28.369999999999997,-0.181284770350028,-0.07974599759562462,9.551268784936461
28.379999999999995,-0.1311434442367347,-0.09346298900021972,9.531354118960301
28.389999999999997,0.01057067774016597,-0.0921729671648387,9.558676885330597
28.399999999999988,0.17044847465681756,-0.06729612313350997,9.548428122228767
28.409999999999997,0.29016281555327,-0.07598632251270263,9.571705830097955
28.419999999999987,0.3536499189364288,-0.08469141928923272,9.549036294759919
28.42999999999999,0.454753889394511,-0.07189764381318303,9.546329880573586
28.440000000000005,0.6662365556983955,-0.07163028670122026,9.54493943668021
28.45,0.9146551995774992,-0.0531642819522319,9.541353393499913
28.459999999999997,0.9341421192898665,-0.08749338184387441,9.530710220725943
28.46999999999999,0.9169386445062918,-0.05518495515752721,9.551390308766253
28.479999999999993,1.0722120662027057,-0.08095670989115708,9.533623823216491
28.489999999999984,1.1537654520068565,-0.06245771742859303,9.547645174608888
28.499999999999996,1.1755298978063589,-0.04811625717297764,9.546560595758843
28.51,1.2567162736990538,-0.06105528819942059,9.544327825182123
28.519999999999996,1.3335794438881157,-0.06647504241951228,9.553100987341866
28.52999999999999,1.327615330771586,-0.06217377538377541,9.538572908801514
28.54,1.376021825650925,-0.08209373976889169,9.540016533270336
28.549999999999997,1.5482632514512742,-0.05474865537862902,9.544697244336986
28.559999999999988,1.3498410864224322,-0.06815873000522754,9.52612602457465
28.569999999999993,0.9857912179514845,-0.04513003748091853,9.535808838464671
28.579999999999988,0.71846314943242,-0.06851088829107702,9.572044649471733
28.589999999999996,0.7498650275368826,-0.062473634893666,9.55042784423166
28.599999999999998,0.7255724544878791,-0.0880338164104645,9.544894673602888
28.60999999999999,0.6736343011612859,-0.08330899476032397,9.528885158757172
28.619999999999994,0.656290802000612,-0.05071699023069055,9.527517850543573
28.62999999999998,0.6242698093515854,-0.06925379346559164,9.554650464421691
28.639999999999986,0.4910979076303518,-0.06546470725208825,9.517773200906298
28.650000000000002,0.3096219167818094,-0.08181905406391819,9.573117330404203
28.66,0.1899029866395084,-0.061897704057419414,9.527985033849895
28.669999999999998,0.02788629509474435,-0.10804340280914847,9.555692116203566
28.679999999999993,-0.045677063218766016,-0.08050638430029498,9.547701086617703
28.69,-0.19146499791722446,-0.10529046287808076,9.553935290425812
28.69999999999998,-0.31886840815350076,-0.08783881480393044,9.561878182406586
28.709999999999987,-0.39550886697093923,-0.08793447107183143,9.554312532836306
28.719999999999988,-0.488161162437831,-0.09713626539131287,9.565478255692112
28.73,-0.5998357199970353,-0.1051716289308981,9.544961415798657
28.739999999999988,-0.6786745963119564,-0.0922377509147496,9.544695920135556
28.749999999999993,-0.8239917704874112,-0.09539825315709648,9.550846560732698
28.75999999999999,-0.8811511253852262,-0.11101941608127773,9.565752933402981
28.769999999999985,-1.0124514976589463,-0.10728896862276871,9.552097837312175
28.779999999999998,-1.0121770606205753,-0.08734058015261414,9.544127412260098
28.790000000000006,-0.7640735602835265,-0.1259728817399713,9.569202312133239
28.800000000000008,-0.4492736270007973,-0.11771890347082141,9.555282672336167
28.809999999999995,-0.40854845396227074,-0.0788620551003084,9.530450498752316
28.819999999999997,-0.48996468468501975,-0.10869005510985659,9.551947465021971
28.829999999999984,-0.4788826948387291,-0.08599852467705593,9.55426647637866
28.83999999999999,-0.49194649409457597,-0.08525060406245322,9.552798369992539
28.849999999999987,-0.3904319723926236,-0.10416134677331627,9.55332836607286
28.859999999999992,-0.2974460956436319,-0.10111448146342172,9.555396623471031
28.870000000000005,-0.15638521994976395,-0.08052712850460478,9.54980960606338
28.880000000000003,-0.06175358863405102,-0.0860435106585834,9.53898577948334
28.88999999999999,0.07625349796469891,-0.0855348601236274,9.542877105730676
28.900000000000002,0.24275485242744524,-0.07411961300237245,9.550885190902125
28.909999999999982,0.30868920676301653,-0.08028388222953078,9.55855631642927
28.919999999999998,0.39353945290481124,-0.08280070950931703,9.543306254105834
28.930000000000007,0.5853270416890173,-0.06285966289262788,9.538537476637362
28.940000000000005,0.7467849015106706,-0.05825917796537679,9.54487585636307
28.95,0.9585159259017463,-0.06955990413008017,9.559562312436555
28.96,0.9019678734812047,-0.07050869361589569,9.528069098494992
28.969999999999988,0.985482502826131,-0.05807931067268781,9.547909673497589
28.979999999999997,1.1258615948567645,-0.055219934229484534,9.532996942274558
28.98999999999999,1.1795787447716293,-0.060423211322013705,9.545781926421855
29.0,1.2309813909867637,-0.059392050642475915,9.551347508362555
29.010000000000012,1.2726477232874642,-0.06847775915468059,9.529386076539144
29.02,1.3281121715852382,-0.04722439305840661,9.558448475102109
29.029999999999998,1.328662516269218,-0.05650118052423771,9.55011904328622
29.04,1.4487384419581795,-0.053679602768084526,9.556923851133835
29.049999999999994,1.533359004990183,-0.058695044704293306,9.535091603536342
29.05999999999999,1.3004362238706515,-0.06585209454603713,9.539613329575587
29.069999999999993,0.9495012259219953,-0.0457811423866487,9.528360621464067
29.079999999999995,0.7392097622888839,-0.07940151693509397,9.554629121823247
29.090000000000007,0.7346562095382878,-0.05704940081812248,9.550903992535497
29.099999999999998,0.685031256127587,-0.09285892362881598,9.544542738539718
29.109999999999992,0.6863059220393927,-0.09404481194750325,9.544944717337918
29.119999999999994,0.6857473942550529,-0.04349480975213865,9.521813925881245
29.129999999999992,0.6023241350821817,-0.08795289637387572,9.547061777409613
29.14000000000001,0.4211250501406857,-0.08957348971700277,9.557669741140922
29.150000000000002,0.2619707742101175,-0.06938500001021033,9.54488329362416
29.159999999999997,0.11558513208617097,-0.08275015444462702,9.555347689787164
29.16999999999999,0.03725288912735101,-0.06608443798307032,9.54646883781273
29.180000000000003,-0.06818192174305422,-0.11132906988911896,9.561334862006063
29.189999999999998,-0.23426772171823534,-0.09193619079568345,9.557066087169408
29.19999999999999,-0.3359263605241784,-0.10674441834945202,9.5669292705504
29.20999999999999,-0.4578160501380422,-0.11269601531348576,9.562365508416196
29.22,-0.5907667027505487,-0.1230549371847278,9.574475584989836
29.230000000000004,-0.6315575994590982,-0.08641477221926248,9.540700710060651
29.239999999999984,-0.7632339495388301,-0.11937181261815838,9.571475578603705
29.249999999999993,-0.805402352266632,-0.08208654759172462,9.558713540683062
29.26,-0.9247521845823036,-0.1120669198807496,9.561518680639608
29.269999999999996,-1.1272104228258266,-0.140674031378198,9.551364342260356
29.279999999999994,-0.9478097285369813,-0.07073709095180412,9.582598463185073
29.290000000000003,-0.6255098560773106,-0.12284048793185473,9.572433508856852
29.300000000000008,-0.4083373682672979,-0.0727937328086747,9.529023083151417
29.31,-0.4562936638876171,-0.10699735419186597,9.545151868020051
29.319999999999993,-0.493447028742511,-0.11389178047177138,9.569427666389977
29.329999999999988,-0.5191961882983698,-0.10682458325099221,9.554816441817081
29.33999999999999,-0.48009571859806727,-0.1051150375246656,9.55525941440659
29.349999999999994,-0.3385603514608539,-0.1170556554571427,9.562259569105235
29.359999999999992,-0.2313716090165856,-0.07897077824138277,9.557306041379817
29.370000000000005,-0.18183638177096365,-0.10920042004882172,9.53397914759375
29.37999999999999,-0.09012282146082203,-0.07652801848956821,9.551333311924388
29.38999999999999,0.04414566788888981,-0.08032305856595026,9.549820522412418
29.399999999999984,0.19856825825592425,-0.08068107000863002,9.548177616777528
29.40999999999999,0.26609815180165497,-0.07660773578535253,9.542592654648812
29.419999999999998,0.3463257019413343,-0.10232256349610026,9.556881489099712
29.429999999999996,0.5274949583997967,-0.05701611185624271,9.539463622925243
29.44000000000001,0.7221109788430545,-0.06961477191617,9.548204141738974
29.449999999999992,0.9489487299419926,-0.059957380771585994,9.545843426464897
29.45999999999999,0.927970789220688,-0.0823673582360312,9.528856757410852
29.469999999999988,0.9131800823405153,-0.05900768931017534,9.569360519970386
29.479999999999986,1.0342378432516401,-0.06953267889827501,9.537196168591688
29.490000000000002,1.124450348171708,-0.0710945387100077,9.540530697026464
29.5,1.2249609050331802,-0.052190700067859995,9.54400921974126
29.51,1.3072379147073832,-0.05416325987497521,9.547524965505026
29.51999999999999,1.359369105072668,-0.06088253799487531,9.522480024696153
29.529999999999994,1.357216866169545,-0.05661772851316334,9.543241177482892
29.539999999999985,1.4343665149195557,-0.050088280244775345,9.540218782287232
29.550000000000008,1.5073947887808703,-0.06189616278605643,9.52279546990718
29.55999999999999,1.2112413618081022,-0.0578266093982094,9.526881759211665
29.569999999999993,0.8802914636063924,-0.0629002639217296,9.556526963820732
29.580000000000002,0.7242178292916417,-0.0655607410391819,9.546725315409908
29.59,0.7417343434711654,-0.061301463329701385,9.550928458591136
29.599999999999994,0.7149363748842585,-0.07255572059713804,9.538224050301304
29.60999999999998,0.6676111625192417,-0.08804849449164666,9.541910782221885
29.619999999999994,0.6672086784900801,-0.06437306014825712,9.546187003050667
29.63,0.5729368588419683,-0.06874879785605978,9.532161098086297
29.639999999999997,0.38997608252666455,-0.08229283811949414,9.547670838770278
29.64999999999999,0.280448969278812,-0.07473220704441062,9.5515912216614
29.659999999999997,0.1394819961139947,-0.0533880317092283,9.527328380588612
29.670000000000005,0.024649900098030593,-0.06644613361839692,9.540666061104293
29.679999999999993,-0.09411999370806733,-0.12547625098516016,9.563979426963783
29.69,-0.27618403911567496,-0.10840521526126196,9.549095203647214
29.69999999999999,-0.35891062051179384,-0.09653992364117307,9.55189489733776
29.710000000000004,-0.46215105530150163,-0.0901831116926428,9.542013726697954
29.71999999999999,-0.5719420374449241,-0.0783556319560899,9.552127184753303
29.72999999999999,-0.674472441080538,-0.11553411504454479,9.573853676944806
29.739999999999988,-0.8025344843668798,-0.12557036861287244,9.559736830559634
29.74999999999999,-0.846412819661476,-0.09662068484557973,9.552261404251361
29.76000000000001,-1.0290486270307344,-0.11979125209754993,9.549144617648277
29.769999999999992,-1.0673038993757105,-0.1055890675625251,9.55013753930145
29.780000000000005,-0.7986732718403635,-0.06230361702741942,9.562668169836039
29.79000000000001,-0.5223916613458656,-0.11599250059580918,9.560766647328547
29.799999999999997,-0.3669600997950666,-0.11011443377176648,9.54756235937324
29.809999999999985,-0.45919255024550265,-0.10619633498998832,9.53168173225057
29.819999999999993,-0.4817602066788331,-0.10304569740745476,9.54917612651156
29.829999999999988,-0.5244721044084831,-0.08883417662255562,9.55233452586763
29.839999999999996,-0.46509634334765304,-0.1201756652215435,9.572118094629758
29.849999999999994,-0.3317346109081268,-0.08303510806932278,9.54217286029687
29.85999999999999,-0.24108943472496716,-0.1134385287762534,9.552178382246343
29.869999999999983,-0.14018454884512274,-0.08825959333048722,9.555822471911704
29.88,-0.0657791184586798,-0.07863347503188964,9.539106160804133
29.88999999999998,0.08477414963015335,-0.07685187774585603,9.559403221849198
29.899999999999988,0.19396196644387673,-0.06412689303193317,9.529658878609101
29.910000000000004,0.277211547285198,-0.08858886570418617,9.551316953334535
29.919999999999995,0.37356389366170695,-0.07951270843912642,9.546136461283803
29.929999999999993,0.555353050258946,-0.0695605120240219,9.550333948157084
29.939999999999994,0.741779331247533,-0.05767613299441478,9.552595458203012
29.949999999999985,0.956692174936253,-0.06674032348173843,9.540906776343599
29.96,0.9291651043938786,-0.06317965085128563,9.53210877759102
29.97,0.9555536447464874,-0.06175424108249901,9.542499858065401
29.979999999999993,1.0876490577201197,-0.06725392164110088,9.54108663791992
29.98999999999999,1.1466342637840017,-0.06695495632844989,9.540399285467176
29.99999999999999,1.1985133936350774,-0.0593118695297867,9.558227833560814
30.009999999999998,1.2757336577700547,-0.051656072419884104,9.532116133086587
30.01999999999999,1.375623846777108,-0.05673789145103392,9.538055763981452
30.029999999999987,1.3922760685728361,-0.05603444248779352,9.546949962514926
30.04,1.4551795297013477,-0.056435972725173866,9.534884312518413
30.04999999999999,1.5223046385913956,-0.05446889932238512,9.53517478387012
30.06,1.2231054688605822,-0.06626478708025138,9.536187239130985
30.07,0.923024442550061,-0.056370226818545886,9.544356843590645
30.079999999999984,0.7304908074089166,-0.06914445103952718,9.55301999384796
30.089999999999993,0.7538463656232147,-0.06314705613311543,9.549287211253253
30.099999999999984,0.7178364812479423,-0.07487956908945645,9.530274559753286
30.109999999999992,0.6688436051770482,-0.09228069520286843,9.561063786021537
30.12,0.6761810126043534,-0.04409446993175279,9.521875071518599
30.13,0.6125324002015566,-0.06830314366888493,9.538074348230507
30.139999999999993,0.41602463891375474,-0.09180798399451381,9.54758681657467
30.149999999999988,0.24092708815836225,-0.08243757111386371,9.54046475831824
30.159999999999997,0.0762494785553296,-0.08161440029217625,9.543675056875287
30.16999999999999,0.0078095015161070685,-0.07138498387531256,9.56864821403202
30.180000000000003,-0.07364118733747972,-0.09534354963124402,9.53959787263784
30.18999999999999,-0.22250163857263866,-0.1049280379668801,9.560975318027545
30.199999999999992,-0.32879627668423855,-0.0714523297264401,9.560703654453548
30.209999999999997,-0.4358795984976727,-0.10117612557205566,9.566747984636203
30.21999999999999,-0.5120678855318038,-0.09267783955818659,9.566710677074468
30.229999999999986,-0.6491597651606421,-0.09923984828917524,9.554030636039773
30.239999999999988,-0.7569891989310717,-0.12699222247264264,9.564905133230114
30.25,-0.8221355470707443,-0.08536748236640537,9.549956661452837
30.26000000000001,-0.9332481396259783,-0.1074025530259779,9.564519341923459
30.27,-1.1412868581118558,-0.13712800871641692,9.57160549056973
30.279999999999998,-0.9698562450343532,-0.08294569054998491,9.55866772201078
30.290000000000003,-0.673165278820444,-0.12069578953940618,9.55842072829055
30.29999999999999,-0.3944383877578706,-0.10991315654465536,9.567945775147207
30.309999999999988,-0.3946732772198907,-0.08107747861347951,9.551468081418697
30.319999999999997,-0.4581954210531924,-0.10929145070346476,9.546056656871368
30.329999999999988,-0.5153463037890973,-0.10911905680829506,9.551385348160524
30.339999999999996,-0.5034900159030351,-0.09259280732976431,9.56936867814578
30.34999999999999,-0.36577193184697215,-0.11084989208967357,9.552429523337823
30.359999999999985,-0.28909665604709006,-0.10862585596161,9.575057741522858
30.369999999999994,-0.17974215761236922,-0.08614885958898467,9.55873447083605
30.37999999999999,-0.10357751684942294,-0.095474446328404,9.547406807348061
30.389999999999993,0.021482969274198287,-0.09025823193240043,9.547855866194846
30.400000000000002,0.18034231710116572,-0.06450646861867228,9.548199857843237
30.410000000000004,0.2881860258392939,-0.08138178722832609,9.555883055122285
30.419999999999998,0.3797867210893143,-0.0760223402227185,9.567528468306042
30.429999999999993,0.5198843984624871,-0.06017284485666305,9.537408282732153
30.439999999999994,0.7120682424549776,-0.07277076221583441,9.558270936877733
30.449999999999992,0.9309493552666486,-0.04958606925076654,9.547239116665269
30.46,0.9116510658221259,-0.08138756266582496,9.53322044797844
30.470000000000006,0.9376938452657708,-0.05766376796966748,9.555814611618835
30.480000000000004,1.0796468070879053,-0.06986845967803608,9.5281049353249
30.490000000000002,1.1386852622430979,-0.06493243875392712,9.568551086914429
30.499999999999996,1.2148675997315024,-0.054054109809645,9.525258977012006
30.509999999999994,1.283494511538008,-0.05614314060316162,9.541545469365245
30.519999999999992,1.3917687716196312,-0.044444815827430935,9.535844493114944
30.52999999999999,1.3485673229851614,-0.06296920584628353,9.551661684409334
30.539999999999996,1.3855219255498097,-0.06300862876205271,9.531520840308364
30.55,1.5402937148889073,-0.0513063949992818,9.546975649737279
30.560000000000006,1.3423060494922932,-0.05455974613978349,9.53374384718017
30.569999999999993,1.0352751463357843,-0.05386752491531639,9.519894058105256
30.579999999999984,0.8043311904204438,-0.07116007783126124,9.564830598603585
30.589999999999982,0.7438014653108466,-0.06538413452783987,9.51352268535801
30.59999999999999,0.7148483790186476,-0.06567308465502232,9.549323452229421
30.610000000000007,0.6559146300642578,-0.07779510083120161,9.511061205618152
30.619999999999997,0.681391528369721,-0.06057161521805171,9.560758649179935
30.63,0.6208135285005432,-0.06353304971566143,9.52851461011868
30.639999999999986,0.4792848594991281,-0.07696021054485444,9.546395094174445
30.65,0.34424392394383674,-0.07745110941162986,9.570805837013697
30.659999999999993,0.20614306485693568,-0.06700477417539161,9.555542758567377
30.669999999999995,0.047478921301701636,-0.07400711091193082,9.54509518892995
30.679999999999993,0.01584987017641362,-0.066104918354824,9.564083381854562
30.690000000000005,-0.18746339764498252,-0.1028215293935927,9.544019789918787
30.699999999999992,-0.3311976794441239,-0.0931785224639643,9.564819232250398
30.709999999999994,-0.3874909571125275,-0.08946421196378379,9.530324076317534
30.719999999999988,-0.44986592498094896,-0.11035814188725393,9.543962370328098
30.73,-0.5711685165030649,-0.09776800253659622,9.549842393144251
30.740000000000002,-0.682368779150589,-0.11334793936059874,9.55253901636401
30.749999999999996,-0.8457603304360535,-0.12055368998662663,9.571965567183268
30.76,-0.8374419932210045,-0.10321627105361542,9.54367855577387
30.77,-1.0407201434893565,-0.13292715072234562,9.557689804904758
30.779999999999998,-1.103344417603897,-0.107906073288114,9.57483895155557
30.789999999999992,-0.8392866704069657,-0.08155830695203349,9.552795992524269
30.799999999999997,-0.5445999236877886,-0.13502616049941082,9.570867104297594
30.81,-0.3829735751085558,-0.09553587682988796,9.527947956378764
30.819999999999993,-0.43486697553691983,-0.08267248964478041,9.544636521355121
30.829999999999988,-0.47578700206989116,-0.11774021147908179,9.555840821394005
30.839999999999993,-0.49658102818688277,-0.11298058333097766,9.560684281359054
30.849999999999987,-0.4177734352671531,-0.0959133754357382,9.555727385357159
30.859999999999996,-0.3458419792155775,-0.10612329545859472,9.544703279109246
30.86999999999999,-0.24004310278443683,-0.06800272066070923,9.56077055070989
30.87999999999999,-0.11923682764605088,-0.09568138355901631,9.554124915168535
30.890000000000004,-0.004766823454504264,-0.07215606157846799,9.56069927221921
30.900000000000002,0.13339202340954134,-0.08981529826774047,9.540746967437496
30.909999999999997,0.22591324185339792,-0.10155970061845399,9.56507984815518
30.91999999999999,0.33025729330626813,-0.08070539807493904,9.55673969245709
30.929999999999986,0.49465977657839305,-0.05998000347583773,9.548407595999668
30.939999999999998,0.5923256306766828,-0.08775353624850464,9.54797130676451
30.949999999999996,0.8526875502942427,-0.07917106176413222,9.5549261631992
30.96,0.9478481457450099,-0.07163551401224996,9.550970178465372
30.970000000000002,0.9044834137671923,-0.06598270377728149,9.53700381074197
30.98,1.027958548395018,-0.066039578821705,9.556755959993835
30.989999999999988,1.1143269421439623,-0.04884599606880786,9.548991743124228
30.99999999999999,1.1777748286407106,-0.05788090362029301,9.548915071775381
31.009999999999977,1.259718533274066,-0.05598350085335901,9.548520305858261
31.019999999999996,1.3492715550486631,-0.05826880425281214,9.53317429346469
31.02999999999999,1.3763702522270351,-0.06644940452751155,9.52318669195893
31.039999999999992,1.3730009613762022,-0.051605308691530336,9.548807165434212
31.050000000000004,1.4961041895129554,-0.054180042869522986,9.526779162295757
31.06,1.448052917049491,-0.0558673841975361,9.532385072899707
31.069999999999997,1.1094830955254358,-0.05348635277501122,9.516262092156499
31.07999999999998,0.8347596261084064,-0.05993285183333004,9.54636467111036
31.089999999999993,0.697681128180282,-0.07147495252980822,9.550673289362505
31.1,0.730120737792461,-0.06861119836197886,9.54896956193865
31.110000000000003,0.6685057172277297,-0.08939317305892396,9.52229290600418
31.12,0.6840335273645753,-0.05874432032347719,9.54579992175354
31.12999999999999,0.660258932633959,-0.05963253542870386,9.533126330637751
31.140000000000004,0.5119822467290006,-0.07402211577096263,9.54099210599043
31.149999999999988,0.32151277212648216,-0.08365893654525361,9.563645482169129
31.159999999999997,0.18747664141177828,-0.07946451666254192,9.557374222729402
31.16999999999999,0.06132024253282151,-0.08675662109570886,9.561930379480458
31.179999999999996,-0.015193438282855232,-0.0937406293489416,9.546307935278488
31.189999999999998,-0.1524889550385738,-0.09958153999125877,9.549025682453745
31.199999999999985,-0.2887195107834453,-0.09975946281355957,9.562099923458781
31.209999999999994,-0.39925230476135415,-0.08324588273074951,9.544568487506748
31.22,-0.4687652138197122,-0.1054384725755597,9.547633609080924
31.230000000000004,-0.5571298426484282,-0.08963443198622828,9.54425497985323
31.239999999999995,-0.6813460044563031,-0.1102595836885778,9.54684011336959
31.250000000000007,-0.8530718652204937,-0.11708105006524477,9.564340004354603
31.26,-0.8499850186313465,-0.08731382997765016,9.547842936462215
31.269999999999996,-1.0060712439971793,-0.08021570613895715,9.541722573796358
31.279999999999987,-1.074740038277651,-0.13231666302563683,9.57899876180735
31.289999999999992,-0.7969761229007998,-0.07100817185704401,9.558850785222388
31.299999999999994,-0.5515034474497681,-0.10429655782407896,9.559968434287224
31.31,-0.38463460748840855,-0.1055893648098275,9.539527258887226
31.319999999999993,-0.42013686015456053,-0.08642159773075231,9.54156927360981
31.33,-0.48936369867712737,-0.1288349378692863,9.56692443104014
31.339999999999986,-0.5129699089901845,-0.09611453363130099,9.557374395720414
31.349999999999994,-0.43820662268572097,-0.08505841764235005,9.561811963514167
31.35999999999999,-0.324489201528654,-0.08982865471594403,9.551220721907098
31.37,-0.2075507158040311,-0.08284924671574882,9.551211272292342
31.379999999999995,-0.13775375971334897,-0.11194357042587737,9.54372006470386
31.39,-0.05300668429927866,-0.0978544430912892,9.549637834985603
31.39999999999999,0.08511019648163787,-0.07702501465426628,9.549877514653863
31.409999999999997,0.20241551805115124,-0.07863105256801965,9.554016595475025
31.419999999999995,0.32614013576485373,-0.08158764273008821,9.552620239128428
31.429999999999993,0.41477677748457376,-0.07492309037968603,9.536027669668863
31.440000000000005,0.56954920408601,-0.07547738330812241,9.55582960820024
31.45,0.8026676072454275,-0.05467922314029777,9.54008237397027
31.459999999999997,0.9239086641945098,-0.08996530546654727,9.543234179868662
31.470000000000006,0.8861181809852307,-0.07071372884587734,9.544112161549188
31.479999999999993,0.9837429519304768,-0.06817782939171109,9.536475549749833
31.48999999999999,1.071382842721019,-0.07539562063337593,9.546707207536782
31.49999999999999,1.1027857960448422,-0.05691151259622853,9.552892224776508
31.509999999999998,1.347171355005332,-0.07035592558971936,9.537548897001368
31.519999999999996,1.337871644018216,-0.06047667782542168,9.54620652724491
31.52999999999999,1.285144709608932,-0.0495062368135155,9.528413527843655
31.540000000000003,1.3168291518042703,-0.0725104951972011,9.530430360750183
31.549999999999997,1.493981804927148,-0.044842195367349985,9.531064766692714
31.55999999999999,1.4624393441661365,-0.07458581191486514,9.534408401921606
31.569999999999986,1.1989121597167838,-0.05788930105483384,9.52569698857766
31.58,0.8701031216443947,-0.060351773339140435,9.527895211111854
31.59,0.7011957917117334,-0.06450436436052186,9.567434995952183
31.599999999999987,0.7137508250462243,-0.05988886527331529,9.566136805940479
31.609999999999996,0.6686260903002809,-0.0949470206225738,9.55081078804737
31.619999999999997,0.6987497555464857,-0.06564508647420363,9.533808011216669
31.630000000000003,0.6792458984378458,-0.05810789477746916,9.553628416841574
31.639999999999997,0.609824438119387,-0.06681166251737491,9.543772068050357
31.650000000000002,0.4025858562022648,-0.08284641023734807,9.54717434887016
31.65999999999999,0.2569496642761575,-0.05721602115601929,9.569406970504156
31.669999999999998,0.10202249920082794,-0.07770824677866821,9.527651481923794
31.68,0.023815295191017254,-0.06953123254441972,9.583716503451289
31.690000000000005,-0.06293225260722081,-0.08166494853062098,9.547100967535696
31.7,-0.21018577776738723,-0.09256649348620555,9.54414327760113
31.71,-0.3682572917045301,-0.09677010535942797,9.55601235595005
31.72000000000001,-0.43137019150104067,-0.08756957014564405,9.562531326942805
31.73,-0.5035619446611352,-0.09750907905590259,9.56668384265549
31.739999999999995,-0.6635816592441413,-0.1000456272077434,9.547814630439182
31.750000000000007,-0.7690270075436705,-0.0944887376924731,9.578449421110811
31.759999999999994,-0.866219123987245,-0.11659732835651308,9.576472329795298
31.76999999999999,-0.9411884963838768,-0.09677412994783989,9.528834034474642
31.779999999999983,-1.118881455040906,-0.0953506567343907,9.577232092521644
31.789999999999992,-0.8993850987562086,-0.08257215760610814,9.556720442768276
31.799999999999997,-0.6278496478334304,-0.08527339012642211,9.566217047081336
31.80999999999999,-0.42724233717446186,-0.10405715713424851,9.56762860413854
31.819999999999997,-0.4269987389715718,-0.0993731230154287,9.53586657681903
31.829999999999988,-0.46853606079109744,-0.08605509137271009,9.534357983312704
31.839999999999993,-0.5252471726866444,-0.10002888997056422,9.570019774243171
31.849999999999987,-0.46419711193455937,-0.09744338410526973,9.565882035024162
31.85999999999999,-0.32977857274254313,-0.09047356274284184,9.554624565961007
31.87,-0.25038712443419947,-0.11621552639916949,9.57188376740768
31.879999999999995,-0.12570247110257293,-0.08461052628372868,9.544802727527609
31.890000000000004,-0.06517128533804536,-0.08277373786692431,9.555675415528574
31.89999999999999,0.04726065261762219,-0.10143142959668339,9.571102029001356
31.90999999999999,0.20525827325379017,-0.06247147030771671,9.54791543331406
31.91999999999999,0.2881685062801411,-0.10106054596057433,9.577722054274226
31.93,0.41416170954837,-0.07924942045488721,9.541139133979947
31.939999999999998,0.5279665242614427,-0.0719538584163424,9.541771587081927
31.949999999999992,0.7132165219512318,-0.06500063348801359,9.548060038753668
31.959999999999994,0.9207701203838012,-0.07587671320094193,9.544436710466151
31.96999999999999,0.8534943841315938,-0.11095551814014029,9.540670244948876
31.979999999999993,0.9573283185337028,-0.0601313838839375,9.541587862121153
31.98999999999998,1.1073592562819432,-0.06275747379080182,9.530635892715303
31.999999999999996,1.1428627207110231,-0.08413377450679162,9.565305291355962
32.00999999999999,1.2143338717049834,-0.06526401778972342,9.5293806250148
32.02,1.2649300766114602,-0.05230047287709239,9.534118004305638
32.03,1.3675868532508546,-0.0637203741673081,9.539908459693162
32.03999999999999,1.3616305361096406,-0.048980576956663885,9.53691874711533
32.04999999999999,1.4272732059510012,-0.06638727343618944,9.5399927697509
32.05999999999999,1.462454399059939,-0.06537255964027296,9.561019656294272
32.07,1.1581384094587568,-0.07469734670112023,9.52537102464437
32.08,0.8573366402683062,-0.05667002435370161,9.548039608499787
32.089999999999996,0.7077330741699892,-0.06978836291779304,9.543256263366349
32.1,0.7341420227792235,-0.07772295474493879,9.556701738369137
32.109999999999985,0.7249043883184131,-0.07159848259544349,9.538142014225786
32.11999999999999,0.7000856302286197,-0.07198665219586185,9.554137623925007
32.129999999999995,0.6544581570675643,-0.06142515235263608,9.549867053208434
32.14,0.5317924035886276,-0.06638777104725221,9.52794905766811
32.15,0.33992285277273016,-0.09766716721332346,9.546029014273348
32.16,0.2282779450320435,-0.06651828387268818,9.54911135122269
32.17,0.08061668095217159,-0.07718752956297815,9.547995150859665
32.18,-0.021500609690424343,-0.0959952553716143,9.55739767214715
32.19,-0.13713643699444214,-0.097928346248446,9.542096044415482
32.19999999999999,-0.27509387004412583,-0.09304873788215773,9.549130330657608
32.21,-0.3825965402354209,-0.10376176502033166,9.551056481278174
32.220000000000006,-0.446482189167843,-0.10416843456456383,9.563980880607492
32.23,-0.5350253457279293,-0.09965439959366111,9.54149420690312
32.24,-0.645530730882959,-0.0996956935320168,9.5415601039379
32.25000000000001,-0.7767221187968575,-0.09051738993776551,9.561700913776148
32.259999999999984,-0.8428789802376278,-0.09275357461185661,9.562035874039303
32.26999999999999,-0.9590284907112648,-0.09189572238035913,9.556702867782453
32.279999999999994,-1.095079180390455,-0.12333474918459107,9.538231444385989
32.28999999999999,-0.9315956521034812,-0.09750955222880861,9.567302933827866
32.3,-0.6056270857034277,-0.0995461997214119,9.567651337080372
32.30999999999999,-0.3962854152999183,-0.11260583766527459,9.524258283001258
32.31999999999999,-0.409916828218487,-0.10905891749891869,9.555355490536998
32.33,-0.47655266820632075,-0.08980649852719916,9.553474416533986
32.33999999999999,-0.5300189403536139,-0.09572178004180298,9.584334997451169
32.349999999999994,-0.49909187906182406,-0.09209873733422792,9.552048850317032
32.36000000000001,-0.3874421089735661,-0.09941258124854818,9.559554022578851
32.37,-0.22784364941821916,-0.0819245756343314,9.556752904317896
32.38,-0.14296344244159884,-0.08813959531285098,9.554663334062365
32.38999999999999,-0.07009446457532417,-0.08743493668561307,9.556724320694974
32.39999999999999,0.0442279148845599,-0.07096252437634823,9.528496751115027
32.41,0.1558805354659902,-0.08912318116172974,9.564863770210996
32.42,0.28381621159275766,-0.06976910056817683,9.540080710111992
32.43,0.3998103628042125,-0.0861448253373035,9.551742642125385
32.44,0.5494143694281971,-0.0633921714030556,9.530010093442767
32.45000000000001,0.7340024773430252,-0.07762297021884688,9.575727572499028
32.459999999999994,0.9485033010340453,-0.0669770016624434,9.554671166203544
32.47,0.8710683045314007,-0.07260495059373771,9.55071478803748
32.47999999999998,0.9868838026044855,-0.04551195914996682,9.535316743633274
32.489999999999995,1.071408501944334,-0.08214551711919632,9.550380197598912
32.5,1.1725279060854472,-0.04636610439664669,9.532924897930524
32.50999999999999,1.2502985123626702,-0.06489465922233828,9.540922802050881
32.52000000000001,1.249281840525509,-0.061482908339473986,9.547997029256772
32.529999999999994,1.3472997904186914,-0.0472350155519712,9.56429805892407
32.539999999999985,1.3841991044299715,-0.05815024828918266,9.536312481885101
32.54999999999999,1.4739106701358549,-0.06059861567986963,9.541882215030908
32.559999999999995,1.4215338109675721,-0.05141421063944653,9.531243778489731
32.570000000000014,1.1863201705770996,-0.07101512334307308,9.55628790480934
32.580000000000005,0.9023200806432963,-0.043960265805517526,9.533809540045729
32.59000000000001,0.7201869775317123,-0.07149887912501722,9.53448158564529
32.599999999999994,0.7261130391923284,-0.06862617413445471,9.548177121251191
32.61000000000001,0.706434549284999,-0.09395949780939325,9.543651130851586
32.61999999999999,0.7065668047597584,-0.07860494311368643,9.544656851957395
32.629999999999995,0.6714051656995651,-0.047386393621388315,9.547378404745295
32.64,0.4688620499271782,-0.09614915226838147,9.53734912422877
32.65,0.3138966950161093,-0.08641369469691383,9.567956302598795
32.660000000000004,0.13669194117973973,-0.0651760001032654,9.534397975806087
32.66999999999999,0.03378257864301838,-0.07614516598103448,9.54852613399639
32.67999999999999,-0.013532089093235682,-0.08062351441548113,9.543232936717828
32.68999999999999,-0.15832008909334164,-0.0806730589350146,9.548935065220281
32.69999999999999,-0.32294260860710416,-0.10505518278562262,9.55066063268502
32.709999999999994,-0.3946199010028761,-0.09648052372750353,9.553411737240332
32.720000000000006,-0.485477362416645,-0.081080383279865,9.533046181164892
32.73,-0.6082744579716856,-0.10077202893437849,9.541870822121302
32.74,-0.6812445102195456,-0.09125983450344227,9.562240766695567
32.74999999999999,-0.8252852384881166,-0.09443842277734733,9.565235761597025
32.759999999999984,-0.8737122516031416,-0.1114606478947803,9.5602180726001
32.769999999999996,-1.0372346536934307,-0.11766408586219032,9.541125779114916
32.78,-1.0159223154166812,-0.11250174578254488,9.560922290634174
32.78999999999999,-0.7589603682291114,-0.1160171838256882,9.572647596902879
32.8,-0.4505091612756908,-0.1016264970725638,9.546058792854213
32.81,-0.3864195657826571,-0.1179154018580619,9.560089410393932
32.81999999999999,-0.4715577853784652,-0.09390671164164935,9.53753004732222
32.829999999999984,-0.5434546644414922,-0.11419840793533091,9.556210062326569
32.839999999999996,-0.5306950597245151,-0.0920492481697374,9.565906931024614
32.85,-0.3605499750246145,-0.10947379504458878,9.552271615495068
32.86,-0.24968342392089635,-0.07716337610692751,9.53775499321482
32.87,-0.15007509604621985,-0.10114839025599583,9.56113798672928
32.879999999999995,-0.07613356609891123,-0.08516824240237598,9.554712489458968
32.89,0.025256335151499013,-0.0829769479038812,9.557854195504222
32.89999999999999,0.12340706423844147,-0.08671240336025562,9.566324992470422
32.90999999999999,0.30182476064838676,-0.08948202643542241,9.554710200223862
32.92000000000001,0.36735826741997346,-0.09079821997225629,9.539221472530707
32.93,0.5276185596843183,-0.0618386358975236,9.559220505014398
32.94,0.7038196563521999,-0.06634841771409761,9.53759485616188
32.94999999999999,0.9069798788544817,-0.05108626237937439,9.555747971172137
32.959999999999994,0.9165978487222128,-0.07735145377662493,9.534958811427611
32.96999999999999,0.8957138750438077,-0.06971304117729585,9.555951464512635
32.98,1.0686040272476378,-0.049924075822069536,9.535997078973436
32.989999999999995,1.1524772621580643,-0.0648409111787179,9.566598084019144
33.0,1.221833223071944,-0.051552687016841584,9.543193517948282
33.01,1.276897121962909,-0.0667865854599142,9.563180332366626
33.019999999999996,1.3636547923237945,-0.047607944888974574,9.534990149818782
33.03,1.3724772990778018,-0.06298475400322284,9.533005264809802
33.03999999999998,1.4248820428994693,-0.048429190732719465,9.54090364578978
33.05,1.4125149140895377,-0.05956848075308233,9.561125462349487
33.06000000000001,1.1356317081044456,-0.04275391147228902,9.517654610143051
33.07,0.8354476876339336,-0.07711021615753035,9.555420679514985
33.08,0.7502942391951154,-0.06440246559693963,9.53977353011394
33.089999999999996,0.7237386998608831,-0.08292152595201302,9.562420268758503
33.1,0.702300240262933,-0.08634400463121536,9.543980365415766
33.10999999999999,0.7013129797151081,-0.07467343098919672,9.565123774188448
33.12,0.6426312095606918,-0.05683870524839474,9.561253176759255
33.129999999999995,0.572997394404992,-0.07528774103013737,9.530333007346494
33.140000000000015,0.38239691347028687,-0.0957662350721176,9.556087908120597
33.15,0.24361602666418944,-0.08237207499010239,9.552760684178063
33.15999999999999,0.06090202039638744,-0.0707560214105866,9.535244922751327
33.16999999999999,-0.020492542007863615,-0.09641765483850344,9.5632165168289
33.17999999999999,-0.12546818149542546,-0.08724648675173181,9.554031595555877
33.19,-0.2332982084574048,-0.09354742250308273,9.537301084068245
33.19999999999999,-0.34925660367629247,-0.09700474831163892,9.54366202122074
33.21,-0.42512499512731,-0.11193494053018693,9.562241640038213
33.220000000000006,-0.502778843102362,-0.09552373083852507,9.546145217987846
33.22999999999999,-0.6454391970349778,-0.10161969237392449,9.544334789520393
33.239999999999995,-0.7664864901728592,-0.1156342639223781,9.559018928872584
33.24999999999999,-0.8172550433704426,-0.0758831742176581,9.562867827113147
33.259999999999984,-0.8919441553342193,-0.09336733852302821,9.548522802766623
33.27,-1.0624609598754902,-0.11775732008581719,9.558762329615679
33.28,-0.9214648922892739,-0.10217354758419721,9.571863715032894
33.28999999999999,-0.6062977023056608,-0.0815558142697603,9.567593763750146
33.29999999999999,-0.387505117882545,-0.1098183613210908,9.544201561782092
33.31,-0.4434703621549804,-0.08812661519263916,9.538373515322151
33.319999999999986,-0.4814307825779092,-0.12366367685363754,9.550090521092322
33.32999999999999,-0.5094162448654398,-0.11801977731662106,9.549464534956076
33.34000000000001,-0.44023594205979233,-0.10664909758204649,9.568278526681896
33.35,-0.3025020230487767,-0.08149736726103912,9.567127179904142
33.36000000000001,-0.201285071088037,-0.08249930075244681,9.554530251610172
33.36999999999999,-0.12253695675350196,-0.10374096736087267,9.554380444009745
33.379999999999995,-0.04071650979794034,-0.07991735211378638,9.552615329437577
33.38999999999999,0.0640790785448558,-0.10125800346783922,9.555682537514844
33.4,0.20913102922991691,-0.0704299106047448,9.552069603989445
33.41,0.3160757326680846,-0.0933669097728808,9.532465319640265
33.42,0.4461888875559982,-0.06971723921199273,9.553431976851517
33.43,0.6061225978264034,-0.054056078831969404,9.5361546601529
33.44,0.7973008411544388,-0.0741598424165487,9.540433249025675
33.449999999999996,0.9124372406544158,-0.06739598021667592,9.543222109693444
33.45999999999999,0.9007187227666413,-0.06751212532596082,9.552282872774276
33.47,1.0095500484115654,-0.05929451511518067,9.552293282422161
33.47999999999999,1.0990918321426084,-0.052784541496611,9.518737940326808
33.49,1.1942294523255512,-0.06362582461787197,9.55640381219474
33.50000000000001,1.2208289018890748,-0.05837546042201479,9.54746826239786
33.50999999999999,1.2526382095570867,-0.07077657340007559,9.5432402040443
33.519999999999996,1.3864597664660512,-0.05173983208003701,9.565242721546882
33.52999999999998,1.3733282434404344,-0.05395403658931404,9.536480833060686
33.53999999999999,1.4247496902949428,-0.05740880465352253,9.55164186042517
33.55,1.4373699969844196,-0.048409715168664796,9.535751055270355
33.56000000000001,1.1715558899364382,-0.05496113935017289,9.531173040093028
33.57,0.8602026649425126,-0.06256661170345951,9.542076290122624
33.57999999999999,0.7334711592306299,-0.06272749928552021,9.537574972438904
33.59000000000001,0.7675193700156867,-0.06421656362052436,9.53583444387378
33.59999999999998,0.7454243556475819,-0.08877440976806134,9.520734725530088
33.61,0.7100149735620216,-0.056116541206450515,9.549711411986795
33.61999999999999,0.6521597820832281,-0.0658263659804021,9.549347560266868
33.63,0.5389079610714039,-0.08536500083944638,9.543244278968837
33.64000000000001,0.37767951080801493,-0.08312203191895606,9.555422656417594
33.65,0.2213306861788076,-0.0827726686224019,9.548977695186673
33.66,0.10037114528147348,-0.10035974793950246,9.55533439448428
33.66999999999999,0.04933948850588556,-0.0632554412164203,9.53588556816777
33.68,-0.07598067810210529,-0.10658657366582805,9.559837969584757
33.690000000000005,-0.22471687079714475,-0.07881132829695768,9.522229335259867
33.70000000000001,-0.36200367731837885,-0.09695339948264314,9.573172466013641
33.709999999999994,-0.4449685567779434,-0.09105739160041462,9.542310465153417
33.720000000000006,-0.5125365021249638,-0.10973240334812652,9.559913549581557
33.72999999999999,-0.6032313202616035,-0.11004073171357785,9.531426820189967
33.73999999999999,-0.7155622214990153,-0.10463778487663579,9.527603248255266
33.75,-0.8158113228964793,-0.10620352731068995,9.566249492831965
33.75999999999999,-0.8809109914503003,-0.11745408205481564,9.558846108913883
33.769999999999996,-1.0825735728434918,-0.1203577855932663,9.551002140948453
33.78,-0.9820589408487536,-0.09077833290613888,9.567379740363972
33.789999999999985,-0.6602569179366289,-0.12293226100829,9.561853319334608
33.8,-0.37815599206974143,-0.1262980182636728,9.555991310603709
33.80999999999999,-0.39228797557769035,-0.0694566644800963,9.5208499339465
33.82,-0.4977790869099149,-0.08814679682185153,9.551444342056142
33.830000000000005,-0.5703920198925775,-0.10913759816200469,9.555722426099194
33.839999999999996,-0.5063629705799984,-0.08385439747276471,9.553284167278282
33.85,-0.33595798959401885,-0.10528847310695821,9.569877563610941
33.86,-0.2155140562720007,-0.09145490872111586,9.546524983171786
33.86999999999999,-0.13301929678484153,-0.0869257261402089,9.557451823042257
33.879999999999995,-0.0819468359736843,-0.09545459317537502,9.549611655778937
33.890000000000015,0.017723559821996367,-0.08023379986992506,9.564156984417172
33.900000000000006,0.12962635800515054,-0.07787907063233358,9.547754477152324
33.91,0.30167921203837234,-0.07794514104270879,9.56328171937205
33.92000000000001,0.3936702884159344,-0.0841758175098167,9.549710055948717
33.92999999999999,0.5331076702900145,-0.07836211345709208,9.539914406955116
33.94,0.6964611494095989,-0.058917054454172745,9.537591435029219
33.94999999999999,0.8947888117948819,-0.07366750345229564,9.558449303902993
33.959999999999994,0.9082848278735213,-0.08003445306576915,9.541004785098643
33.97,0.9444661356100797,-0.0746939726900283,9.564271166242722
33.97999999999999,1.070297406491515,-0.06412691793584879,9.528283066019856
33.99000000000001,1.1364763052257874,-0.06429848777491459,9.548047652692228
34.0,1.2037788736278707,-0.06711313709047477,9.541903955502168
34.009999999999984,1.2552120847975567,-0.05855063302435563,9.553033206063668
34.01999999999999,1.3283607403521887,-0.06959909306366155,9.53770501933704
34.029999999999994,1.368849852141128,-0.04955930575307182,9.546821254640172
34.04,1.390953918060679,-0.05988003929166109,9.530198564037077
34.05,1.4724186983639458,-0.054342708311481525,9.551943454657133
34.06000000000001,1.3141002419782346,-0.05117481176717681,9.505036382306214
34.069999999999986,0.9596255406425237,-0.06789161356732368,9.560424000686497
34.08,0.7538877988221087,-0.07413731634126443,9.546135702986257
34.089999999999996,0.76759189906091,-0.07881239207814353,9.549161040335239
34.1,0.7559852556158064,-0.06628305761349564,9.54317139999287
34.11,0.710659540391994,-0.06440944672453137,9.554365233278382
34.12,0.6663517384530068,-0.06903768294536029,9.543718556770834
34.13,0.5497450030385503,-0.0951342151651774,9.536037226205686
34.14000000000001,0.42369460272484266,-0.0647223148498232,9.549906977967428
34.14999999999999,0.291473023340749,-0.08263741571640995,9.5699328987661
34.16,0.1771913614240291,-0.06808063330009323,9.527914577996052
34.17,0.04079289478565937,-0.06304018256037004,9.530393295783188
34.17999999999999,-0.051711406069029686,-0.08666726041297972,9.564645756752304
34.190000000000005,-0.23005107492889687,-0.1007434996693726,9.54506706997331
34.199999999999996,-0.331844061731419,-0.10410061001049431,9.55613605204368
34.21,-0.435666649384456,-0.10570421404400959,9.567364584652942
34.22,-0.473403585982887,-0.08923059382026637,9.558348552535675
34.22999999999998,-0.6047526718269758,-0.10992646608881772,9.551684114529476
34.23999999999999,-0.6985483220815548,-0.10558898691649975,9.564892183879058
34.25,-0.8187156082333019,-0.10172993994367212,9.548988944899103
34.25999999999999,-0.8661253891376194,-0.10507112494917682,9.577243538535864
34.27,-1.0647603693723269,-0.11677918816350448,9.536831704131242
34.27999999999999,-1.0379154439465428,-0.10645136638750466,9.552898146251774
34.29,-0.7559285551735654,-0.10015497010174224,9.582562266231083
34.299999999999976,-0.43417721514835633,-0.10139547003933841,9.546328247765075
34.30999999999999,-0.39135885717687074,-0.09421358497334856,9.545652191774918
34.32,-0.4762431831765945,-0.09851028658396936,9.545364006182941
34.33,-0.5325601944503158,-0.10146078002190356,9.566285094101763
34.339999999999996,-0.530496968939673,-0.10086242360859872,9.551005310305646
34.349999999999994,-0.393590810568335,-0.10459282995311214,9.570568212362295
34.35999999999999,-0.2550328762591328,-0.07655923513948702,9.545510484692807
34.36999999999998,-0.1695776281204022,-0.10644896056773322,9.553959827576632
34.37999999999999,-0.0756298919797269,-0.08963309203023573,9.541470292317857
34.38999999999999,-0.03957866357493468,-0.08946030476714788,9.566572818476768
34.4,0.1112923918370589,-0.075745686583599,9.550153770113333
34.40999999999999,0.24189976085350415,-0.0785225014314299,9.546191755075947
34.41999999999999,0.347665215613505,-0.08937383441227327,9.54871085879998
34.42999999999999,0.4912603207565481,-0.04715817678404423,9.522572037917083
34.439999999999976,0.6100533538921619,-0.07475004395775113,9.557198824629808
34.44999999999998,0.821990509773943,-0.04772072832419974,9.556940979912275
34.459999999999994,0.9542521540751618,-0.07325975529143504,9.536608213225577
34.46999999999999,0.9058035659037087,-0.0798117978243559,9.556810786851877
34.47999999999999,1.048384780772564,-0.059561714607860576,9.537475871033413
34.49,1.112270995557993,-0.07147704508835932,9.54521314912771
34.49999999999999,1.1995399971771565,-0.055824103560520914,9.532081197237453
34.50999999999998,1.2442650854681376,-0.05664936069152025,9.528215715316666
34.51999999999999,1.3508441772801227,-0.05512305547862542,9.543943209592138
34.53,1.3528739838391526,-0.04907531558106668,9.526157322036633
34.54,1.3805333483173743,-0.056305722025001205,9.569779493408475
34.55,1.4766546012981199,-0.0554786695689166,9.554620458755542
34.55999999999999,1.3516586350852424,-0.06138908814298516,9.543612208179646
34.57,0.991716511524312,-0.06451652070270372,9.535716446045166
34.579999999999984,0.7746036789679746,-0.07643718268442953,9.561061773302933
34.58999999999999,0.7520299165089821,-0.060752407651681044,9.532340985533953
34.599999999999994,0.7834258038630281,-0.09733343431054275,9.557838702795813
34.61,0.742024375031704,-0.06488396769913708,9.525756562651257
34.61999999999999,0.6812084831267182,-0.054845351339849364,9.54031024043267
34.62999999999998,0.5999427767386076,-0.06607004808735818,9.551266110984503
34.63999999999999,0.4567209700822779,-0.0886603021920481,9.537453465617547
34.649999999999984,0.27227311254419156,-0.07631738837868718,9.569222794409624
34.65999999999999,0.12610201999741902,-0.07595982360537774,9.520662492454683
34.66999999999999,-0.013932988851276605,-0.07864715330384062,9.558209973993796
34.68,-0.09868058589626492,-0.06583281388865206,9.554796699494464
34.68999999999999,-0.26359885945385403,-0.10419983473640167,9.558495216899649
34.699999999999996,-0.4106917952873609,-0.09204201890699054,9.551872371903274
34.70999999999999,-0.5193458900845838,-0.11512457137377302,9.549961053193877
34.71999999999999,-0.5772911919828627,-0.0877240030420575,9.554285408055573
34.72999999999998,-0.6044301814035401,-0.0970108291027138,9.566522585270098
34.74,-0.6759275321999266,-0.10044588342614641,9.561295172493422
34.74999999999999,-0.7519153885882994,-0.11558841608355198,9.533790652571822
34.75999999999999,-0.7995785163401347,-0.0947657813162021,9.57391527094445
34.76999999999999,-0.9812320440609575,-0.1133232097455295,9.547787338251268
34.78,-0.8900407732526681,-0.08146961023294151,9.591372235603757
34.78999999999998,-0.6354076015189113,-0.0867148375384607,9.541040812810774
34.79999999999999,-0.3416591523573807,-0.09949357524164955,9.526767617361871
34.81000000000001,-0.2621511606564963,-0.10003904985912106,9.544249140876094
34.82,-0.2967364465131866,-0.07907056539765908,9.531360694014749
34.82999999999999,-0.3616430462354148,-0.10241087089918487,9.555285678530675
34.839999999999996,-0.3128220005722584,-0.10091711104200828,9.568175135707936
34.849999999999994,-0.20469952220559567,-0.0906953169479025,9.538744096929907
34.85999999999999,-0.10491764205049059,-0.10885901824790653,9.55351036836615
34.87,-0.030971449700109545,-0.08790428494061883,9.5459596707767
34.88,0.009777348671161786,-0.07714785366288077,9.534290254020625
34.88999999999999,0.12673700167337862,-0.10952321668153821,9.573719898860936
34.900000000000006,0.24995276671040625,-0.06927803294406193,9.515997652701767
34.90999999999999,0.3389936794180314,-0.07515488546687926,9.548101561625877
34.91999999999999,0.44978373555614604,-0.06926997536163851,9.546377142699646
34.929999999999986,0.5098287472074878,-0.07599756857113384,9.541561134078329
34.93999999999999,0.647117419708853,-0.06103635172650625,9.541745600794773
34.949999999999996,0.7071175840359887,-0.0925487880546858,9.554394655489482
34.959999999999994,0.7706531291960145,-0.07589211438312708,9.536385036451193
34.97,0.8839539765649077,-0.06499463062149487,9.558382715767898
34.97999999999999,0.9232293037414465,-0.08997974975779326,9.546312390733902
34.99,0.8846179611769553,-0.05354966438795595,9.534825667733173
34.99999999999998,0.881987552588318,-0.06946464606826624,9.540214601644257
35.00999999999999,0.8973111068711743,-0.04800621580990885,9.529589870836324
35.02,0.9460883737291379,-0.0787594247616311,9.562998394686405
35.03000000000001,0.9900216411466587,-0.05625088275444453,9.518614611561693
35.03999999999999,0.9860804935308851,-0.0709509278147239,9.545980051319393
35.04999999999999,0.9963168497557601,-0.062486362438470174,9.545656736311615
35.059999999999995,0.9270261967066338,-0.06985173329494918,9.544626314359597
35.06999999999999,0.7234983333660271,-0.09060609918201033,9.54030987938403
35.07999999999999,0.5513944927701033,-0.05905340580169226,9.537641786501114
35.089999999999996,0.4817490670078514,-0.06666419246041029,9.54613977071682
35.1,0.41982499365737164,-0.07579460813991201,9.547701177780322
35.10999999999999,0.42381037590313253,-0.10348077423820222,9.547957916135376
35.12,0.34825662110388533,-0.0863765580211692,9.535655831468798
35.129999999999995,0.2517557224744464,-0.06701061074897784,9.532062950537291
35.13999999999998,0.18773603547835357,-0.07841427055803532,9.542463697783127
35.15,0.14587673967622944,-0.07568929637416676,9.547531584669706
35.15999999999999,0.05089974715884448,-0.0812797926259597,9.545117920778743
35.17,0.009758940929621493,-0.068930701018643,9.54543020560807
35.18,-0.04792427015527518,-0.09425566914498745,9.568382696786431
35.19,-0.06610795551565506,-0.07624642012429249,9.562645412334772
35.19999999999999,-0.10996222665696045,-0.07597575409625527,9.549920203081607
35.20999999999999,-0.18394892921647546,-0.0956776393688106,9.561567114519221
35.21999999999999,-0.22444630556492182,-0.09224567682267915,9.566976070799152
35.22999999999999,-0.2444467368330503,-0.07424623486438073,9.582132225864482
35.239999999999995,-0.3662397686300454,-0.10713004024333031,9.545671398827132
35.25,-0.46388072963643634,-0.08322889938487679,9.572717344540502
35.259999999999984,-0.31427151940114434,-0.09262485192431966,9.538408611189885
35.269999999999996,-0.06759007250913886,-0.07806909186222684,9.549901641862736
35.27999999999998,-0.04784303263384592,-0.0994735915636444,9.537679318101057
35.28999999999999,-0.06041345809739219,-0.09835026642477235,9.579861524594326
35.29999999999999,-0.054306989801457116,-0.08396595124058336,9.55756550741305
35.309999999999995,-0.050866917794615094,-0.0878801118304746,9.56154225765511
35.32,0.009404057293152478,-0.08107829390892263,9.550666939020818
35.33,0.11029316520550964,-0.0778580949401386,9.559529973766464
35.339999999999996,0.1481030780291157,-0.07190785272733133,9.54814189692675
35.349999999999994,0.14645110505661607,-0.08781724225666586,9.540275960032481
35.36,0.12199433870523646,-0.08288200532368334,9.547303935198373
35.36999999999999,0.16741243061320063,-0.06966145661144191,9.536123006820715
35.379999999999995,0.22649995865009287,-0.0841791396009243,9.563154886343137
35.39,0.3116992431987547,-0.08550011303557452,9.540490992435235
35.39999999999999,0.36048800486765875,-0.06491032193889211,9.533931690169954
35.40999999999999,0.363765552707289,-0.09334370645550782,9.553950050753242
35.41999999999997,0.3589267012382957,-0.07474795733592433,9.534728367142732
35.43,0.38789296967369946,-0.08873143592304412,9.552658645105645
35.43999999999999,0.4653620729288495,-0.07339801249427891,9.558232027827104
35.449999999999996,0.5068868069459502,-0.06879386963647302,9.549689923237839
35.459999999999994,0.5117692284984001,-0.07373830803290421,9.535883416977223
35.469999999999985,0.4997559152948329,-0.06627054469569967,9.534300909342369
35.47999999999999,0.449686730212439,-0.08540299836846324,9.566581871592328
35.48999999999999,0.5276722220511669,-0.05697499696593435,9.53612839490777
35.5,0.4952650922828124,-0.060484117949510134,9.528478115033112
35.50999999999999,0.44227192219791756,-0.06544423032129297,9.541516724160825
35.52,0.41279872314769156,-0.07259739584724371,9.541076508847743
35.53000000000001,0.40385158026863655,-0.0856343468603789,9.559815000696565
35.539999999999985,0.39250836950896706,-0.0736018713565607,9.544512437996582
35.55,0.31811565510815626,-0.08069733653916734,9.545856359279435
35.55999999999998,0.22174205103865705,-0.09690679219641075,9.564081589138166
35.57,0.214661747108032,-0.07244164406896275,9.541291930197977
35.58,0.21763543455157314,-0.07283827145397187,9.52866240733529
35.59000000000001,0.20703204262723346,-0.09595012932661098,9.536444003508661
35.599999999999994,0.17503148862483148,-0.08311141650737286,9.54541482325334
35.60999999999999,0.08873598910303096,-0.08805486531312878,9.532109833904947
35.61999999999999,0.04743322736155272,-0.10667320543786275,9.557001236111606
35.62999999999999,0.05632120305465939,-0.08070735979831374,9.534652396066642
35.64,0.06857490624149984,-0.08696930962030533,9.530400329841314
35.65,0.0933171772508623,-0.0702335829622202,9.54513884263419
35.660000000000004,0.13471504788592523,-0.0752398750550299,9.53607541272655
35.67,0.21148305403345447,-0.0852805111626187,9.545598194955332
35.68,0.24287878915031538,-0.08325520899554509,9.56881242621792
35.68999999999999,0.20955405640712704,-0.09937156624800852,9.536804668023063
35.69999999999999,0.22580210080807056,-0.08096882991974332,9.565095228975368
35.709999999999994,0.2182946257301512,-0.08112511556019764,9.541504809872128
35.71999999999999,0.2228822381103504,-0.08212435526546713,9.5585566386057
35.72999999999999,0.22703320336892824,-0.07923715429059928,9.535112787623103
35.739999999999995,0.2191738500077111,-0.09637412254512359,9.555181613836464
35.75,0.2342422151300996,-0.07262582767879679,9.557875187656467
35.75999999999999,0.21807714100904646,-0.09689060076624954,9.55365933837704
35.76999999999999,0.22523923277857813,-0.0573302796562629,9.526428685752363
35.77999999999999,0.21613591215074027,-0.09099965470649413,9.535597148471089
35.79,0.22621743847140835,-0.07953410050527795,9.556263242960112
35.8,0.21134109623912406,-0.0829687903640803,9.52720200086301
35.809999999999995,0.22424960521383458,-0.07698624650718609,9.545300514598486
35.81999999999999,0.2176117809606566,-0.0700143661007006,9.527115127563766
35.82999999999999,0.22320463669142568,-0.09316649252874393,9.573979807312302
35.839999999999996,0.2309157039645528,-0.08161268379421316,9.551812682700412
35.849999999999994,0.22634731199070823,-0.08214492607495903,9.554288130017449
35.86,0.22160934831060036,-0.0690516547917538,9.537153513241028
35.87,0.23001001866223095,-0.08540397326133298,9.549922479942508
35.879999999999995,0.22982074191826757,-0.08297141103718582,9.554679287938352
35.89,0.23066773260112225,-0.0688706010576016,9.540259657301444
35.89999999999999,0.2071154761408475,-0.09193445755506695,9.546963672600784
35.90999999999998,0.22451066717106224,-0.06410334718195033,9.544289540798731
35.91999999999999,0.2181948127112532,-0.08526337437959584,9.550405759654263
35.93,0.2313191167658137,-0.08587633533507609,9.553311529556275
35.94,0.2343597182510899,-0.0740304200062375,9.548924792290785
35.95000000000001,0.24187129714291655,-0.08080307842623001,9.57011652952229
35.959999999999994,0.2300494936551938,-0.0804248503285036,9.552369915465311
35.96999999999999,0.2196422338017115,-0.08439312757397872,9.554095049616405
35.979999999999976,0.19992777807362477,-0.09381794486269003,9.542934651781394
35.99,0.23694797744987406,-0.07710711698301811,9.557621101139908
36.00000000000001,0.23360074065246952,-0.08932749278261327,9.542106852948422
36.01,0.21122677950705954,-0.09291749835969884,9.548499639189947
36.02,0.22503756287493878,-0.07510753257823283,9.552044981279698
36.02999999999999,0.22784153351918715,-0.07553223657428632,9.541032763688689
36.040000000000006,0.21156424160266818,-0.10050489861320394,9.569983500163062
36.04999999999999,0.22555221937640732,-0.06753186652966724,9.53951175909499
36.05999999999999,0.2239239449238884,-0.07565218597399463,9.539972851007878
36.06999999999999,0.2309510879659095,-0.08583833157647193,9.546437476690688
36.08,0.21883257537353196,-0.08737020691020764,9.55030981002916
36.09000000000001,0.22719670255110788,-0.0880901391882998,9.546073544430314
36.099999999999994,0.22012283367061009,-0.07912863518944917,9.539505746117621
36.11,0.2107978788509917,-0.09336341296654833,9.532687417030717
36.11999999999998,0.24260488251424042,-0.074401297538278,9.542405516651023
36.129999999999995,0.23624524141689046,-0.07966772925215083,9.547748553595879
36.14,0.21549847758974938,-0.09160495196919333,9.54092080924059
36.15,0.23347206036101556,-0.07310934028247291,9.552043530008717
36.16,0.21644195940449898,-0.09882470583070788,9.544495444292247
36.17,0.22639703392166888,-0.08902301177163559,9.552550734121095
