Time (s),Acceleration x (m/s^2),Acceleration y (m/s^2),Acceleration z (m/s^2)
0,0.224878742,-0.065135841,9.516290978
0.01,0.229457327,-0.06428966,9.52856498
0.02,0.229329298,-0.069696172,9.532391044
0.03,0.230876738,-0.071025804,9.51770992
0.04,0.229877523,-0.086134937,9.535739719
0.05,0.247641668,-0.060599817,9.516243949
0.06,0.240173528,-0.063691827,9.525798759
0.07,0.229574745,-0.067283576,9.541723391
0.08,0.223276133,-0.068107069,9.515634189
0.09,0.2396435,-0.069199321,9.536637519
0.1,0.225654717,-0.058396759,9.512822465
0.11,0.21454942,-0.074568364,9.539732514
0.12,0.2354112,-0.057038338,9.499709454
0.13,0.230489446,-0.083012517,9.528770952
0.14,0.246980398,-0.06843465,9.519703382
0.15,0.209636796,-0.08292741,9.532237761
0.16,0.23458196,-0.057063851,9.522537836
0.17,0.226051733,-0.069771465,9.527344446
0.18,0.2360007,-0.076860601,9.534021151
0.19,0.22958273,-0.068792792,9.519267832
0.2,0.219778609,-0.063029953,9.534122773
0.21,0.243831831,-0.05715794,9.527697227
0.22,0.234863177,-0.064225032,9.532453057
0.23,0.229481496,-0.087097307,9.557203249
0.24,0.237144057,-0.070810885,9.525918096
0.25,0.242837299,-0.079241058,9.535191643
0.26,0.242081755,-0.072970787,9.525650269
0.27,0.213425986,-0.065725924,9.521570603
0.28,0.227616032,-0.060938894,9.543880113
0.29,0.227927863,-0.066182568,9.511548348
0.3,0.249299714,-0.075798124,9.523785034
0.31,0.23636756,-0.063941407,9.53968188
0.32,0.238022933,-0.05539972,9.519424929
0.33,0.229432266,-0.085779333,9.544717314
0.34,0.237209306,-0.061659875,9.528362271
0.35,0.21249838,-0.066756735,9.525365097
0.36,0.237425406,-0.052758633,9.536141369
0.37,0.222242052,-0.066042975,9.515621838
0.38,0.23773093,-0.054294681,9.520402769
0.39,0.215599793,-0.067808249,9.511256079
0.4,0.229815735,-0.078990399,9.535984117
0.41,0.223684939,-0.062916932,9.513726293
0.42,0.232401514,-0.067844063,9.531253735
0.43,0.234996293,-0.06584651,9.537999273
0.44,0.208014385,-0.072891618,9.526100336
0.45,0.24048909,-0.056703857,9.53056403
0.46,0.237584081,-0.065775556,9.529198996
0.47,0.222790553,-0.062536241,9.528027923
0.48,0.240738268,-0.060786968,9.536645976
0.49,0.247989984,-0.07394863,9.531488792
0.5,0.22860994,-0.08729389,9.545904128
0.51,0.229382092,-0.061665532,9.52896712
0.52,0.229270849,-0.084820505,9.546477498
0.53,0.243537217,-0.054835773,9.514240444
0.54,0.223892003,-0.080032569,9.525078867
0.55,0.236951809,-0.058659913,9.519103331
0.56,0.224476738,-0.070045719,9.526358262
0.57,0.225693282,-0.077642229,9.535977218
0.58,0.225644743,-0.061119718,9.528947872
0.59,0.220735247,-0.063261543,9.515004902
0.6,0.231436178,-0.079515008,9.529689263
0.61,0.239829364,-0.050676072,9.51774957
0.62,0.230353835,-0.071583501,9.530114024
0.63,0.222623802,-0.073830827,9.523720367
0.64,0.231825373,-0.077777286,9.533173601
0.65,0.232667891,-0.070407323,9.52602962
0.66,0.239793202,-0.065165104,9.521810675
0.67,0.222541372,-0.060885777,9.521948217
0.68,0.226015719,-0.072435699,9.536569978
0.69,0.239026566,-0.064476226,9.528649318
0.7,0.215738874,-0.07043329,9.521160597
0.71,0.23688965,-0.065123986,9.530672959
0.72,0.234717841,-0.06730926,9.51369765
0.73,0.238240784,-0.071329684,9.539606559
0.74,0.228986781,-0.06131346,9.521933827
0.75,0.197171546,-0.092758798,9.532535083
0.76,0.22849816,-0.073096175,9.533927614
0.77,0.220591727,-0.05803424,9.510468587
0.78,0.226263714,-0.066355376,9.534708524
0.79,0.237210482,-0.047470517,9.515854787
0.8,0.228841482,-0.06517393,9.530183326
0.81,0.21321258,-0.075396244,9.526572167
0.82,0.225992591,-0.055957582,9.49587513
0.83,0.220577051,-0.064752267,9.509256334
0.84,0.236011669,-0.080050377,9.539297446
0.85,0.220491899,-0.069069165,9.535783966
0.86,0.219499122,-0.076627319,9.536502172
0.87,0.234340744,-0.062317026,9.516629093
0.88,0.227138954,-0.082680182,9.536723776
0.89,0.231189888,-0.054707855,9.507739416
0.9,0.223235203,-0.05991416,9.53858703
0.91,0.234213272,-0.075636321,9.549951564
0.92,0.218246723,-0.075707046,9.528687002
0.93,0.241807419,-0.073659806,9.549542699
0.94,0.230246252,-0.066754922,9.520705715
0.95,0.21320793,-0.082951993,9.53872591
0.96,0.228324164,-0.054324705,9.501123244
0.97,0.223840229,-0.095792153,9.540562253
0.98,0.231802703,-0.058347399,9.521958266
0.99,0.213238867,-0.078772189,9.531426991
1,0.227635446,-0.062217489,9.513898609
1.01,0.229822263,-0.059887601,9.527743076
1.02,0.228667565,-0.071926317,9.53455039
1.03,0.222718737,-0.057795075,9.528500985
1.04,0.218192431,-0.064323976,9.537291772
1.05,0.242482695,-0.058943349,9.527073599
1.06,0.23016918,-0.065399327,9.520512271
1.07,0.221197286,-0.073751808,9.53735966
1.08,0.228521845,-0.053814237,9.520067264
1.09,0.23283778,-0.075399649,9.529343596
1.1,0.235797468,-0.059334587,9.524325442
1.11,0.227147038,-0.06758414,9.535042202
1.12,0.222892239,-0.069808661,9.545501249
1.13,0.229358982,-0.060131443,9.520372073
1.14,0.229508092,-0.087125982,9.536500714
1.15,0.23048186,-0.063905335,9.527342357
1.16,0.226689384,-0.072595004,9.527549377
1.17,0.234242864,-0.071317239,9.548483356
1.18,0.232200511,-0.073352365,9.532515615
1.19,0.225932795,-0.059158209,9.503065122
1.2,0.227666666,-0.065947462,9.532785377
1.21,0.23352629,-0.062555005,9.526635505
1.22,0.209973961,-0.061412069,9.529143784
1.23,0.229794139,-0.071008068,9.534650626
1.24,0.227938105,-0.071358835,9.537003909
1.25,0.226488273,-0.061339334,9.531032539
1.26,0.221844553,-0.092859053,9.53262878
1.27,0.227938107,-0.070836054,9.524004152
1.28,0.223555319,-0.066294712,9.522690196
1.29,0.227481458,-0.069675643,9.537740771
1.3,0.221612128,-0.06750051,9.538847917
1.31,0.236720825,-0.065959645,9.524701397
1.32,0.221583639,-0.079185387,9.523705208
1.33,0.227469175,-0.05081953,9.513686859
1.34,0.229922113,-0.083213064,9.538768131
1.35,0.230390049,-0.079555279,9.540402419
1.36,0.214674463,-0.083047169,9.515148368
1.37,0.223759671,-0.064835157,9.533668512
1.38,0.22736093,-0.056574308,9.529321104
1.39,0.222642475,-0.068704858,9.523196125
1.4,0.224270964,-0.060313252,9.514252028
1.41,0.227148816,-0.064671632,9.523927761
1.42,0.231004125,-0.072048683,9.54247024
1.43,0.216598925,-0.067738077,9.520283505
1.44,0.211745177,-0.056015624,9.516415412
1.45,0.230311245,-0.054967849,9.524740854
1.46,0.230482053,-0.066984273,9.524317444
1.47,0.239041976,-0.054338412,9.524317606
1.48,0.23183578,-0.056887785,9.519376361
1.49,0.230099712,-0.06406107,9.53506714
1.5,0.237403339,-0.060252978,9.501125575
1.51,0.233487182,-0.080766207,9.544869439
1.52,0.231941275,-0.052030809,9.512982609
1.53,0.222038837,-0.069741504,9.538413058
1.54,0.241087829,-0.048591648,9.537593838
1.55,0.233293369,-0.07875261,9.535158839
1.56,0.226931446,-0.073690963,9.541331162
1.57,0.211165372,-0.071421358,9.517554542
1.58,0.227823355,-0.082316259,9.542058565
1.59,0.234807412,-0.060759023,9.518735507
1.6,0.234218813,-0.07187072,9.540032033
1.61,0.219225522,-0.059387419,9.532028312
1.62,0.228213673,-0.071553658,9.507427715
1.63,0.231708443,-0.066607791,9.53566922
1.64,0.209240273,-0.077743527,9.523017199
1.65,0.232012746,-0.062005415,9.525159651
1.66,0.229345197,-0.076991843,9.552379003
1.67,0.253397341,-0.060780404,9.516704143
1.68,0.221041244,-0.069815575,9.526843607
1.69,0.210054336,-0.08599947,9.534278267
1.7,0.23552918,-0.073514845,9.53730158
1.71,0.228976608,-0.067399428,9.528152926
1.72,0.23094923,-0.067903159,9.516038729
1.73,0.231140519,-0.067260768,9.533917437
1.74,0.243066723,-0.056530043,9.534582759
1.75,0.215342691,-0.073091726,9.524718073
1.76,0.225676671,-0.061309933,9.525461317
1.77,0.230845335,-0.068384946,9.534040722
1.78,0.232313919,-0.06304932,9.528265791
1.79,0.234249032,-0.061757574,9.529466782
1.8,0.225207943,-0.077787076,9.527538929
1.81,0.215851546,-0.069577233,9.516754882
1.82,0.239237179,-0.065594076,9.53079736
1.83,0.233666195,-0.078001277,9.527010458
1.84,0.228722789,-0.062668583,9.535930643
1.85,0.224262387,-0.050384369,9.536941838
1.86,0.219920525,-0.071363489,9.532251788
1.87,0.211476392,-0.082896069,9.526084763
1.88,0.235998276,-0.052710781,9.522000361
1.89,0.224331723,-0.063420702,9.510423223
1.9,0.21561032,-0.069736464,9.518771527
1.91,0.240322283,-0.062069009,9.522761935
1.92,0.229758794,-0.084931885,9.543001384
1.93,0.217821639,-0.071479183,9.535434658
1.94,0.22443315,-0.05907564,9.510756929
1.95,0.218281345,-0.075799201,9.529812543
1.96,0.222792363,-0.075546451,9.518757133
1.97,0.218272725,-0.062465211,9.519605029
1.98,0.240311375,-0.076370302,9.534304878
1.99,0.232211751,-0.074530208,9.531936334
2,0.205713461,-0.097084687,9.5376247
2.01,0.214968494,-0.05848349,9.508363547
2.02,0.218291279,-0.09133425,9.54490933
2.03,0.237724656,-0.060661033,9.529111892
2.04,0.227113123,-0.071461679,9.528297285
2.05,0.24678484,-0.063166553,9.537401956
2.06,0.212619727,-0.067481008,9.51393468
2.07,0.237388973,-0.060467108,9.535925968
2.08,0.24016018,-0.075878677,9.522393716
2.09,0.238798186,-0.076328152,9.549855879
2.1,0.226090352,-0.065001802,9.52685197
2.11,0.220734032,-0.079359195,9.538908387
2.12,0.240738608,-0.043659562,9.51631335
2.13,0.224721858,-0.084391997,9.529502899
2.14,0.238661285,-0.065648446,9.532119504
2.15,0.228705309,-0.07522696,9.523419887
2.16,0.236483161,-0.061398777,9.527672339
2.17,0.231184206,-0.059962378,9.524072982
2.18,0.227046225,-0.074299872,9.540002066
2.19,0.225112238,-0.064355151,9.523468331
2.2,0.238346102,-0.060963839,9.518381023
2.21,0.242189811,-0.073929264,9.544052694
2.22,0.217971644,-0.057390404,9.534372968
2.23,0.226636729,-0.068354555,9.527881787
2.24,0.230648456,-0.05702267,9.527578964
2.25,0.219638941,-0.07271922,9.519171039
2.26,0.227387094,-0.073574765,9.541694001
2.27,0.220547615,-0.067770414,9.516762341
2.28,0.224464393,-0.073073194,9.540103762
2.29,0.231283637,-0.055733658,9.5213848
2.3,0.227911911,-0.092610739,9.536411169
2.31,0.238910596,-0.049164599,9.514669252
2.32,0.227142488,-0.091138274,9.551951481
2.33,0.237473208,-0.060726774,9.524831212
2.34,0.235743379,-0.08138136,9.532558258
2.35,0.229801574,-0.075467825,9.520938651
2.36,0.21345349,-0.059832904,9.51952463
2.37,0.233359641,-0.073112254,9.534473576
2.38,0.234282351,-0.076115191,9.529192315
2.39,0.238318708,-0.073721694,9.537888874
2.4,0.237204594,-0.052983488,9.513722484
2.41,0.229967345,-0.068461895,9.532539376
2.42,0.228947397,-0.080944677,9.539342751
2.43,0.226791923,-0.072968694,9.532670652
2.44,0.23280745,-0.05268992,9.516515486
2.45,0.233062558,-0.074033391,9.546737058
2.46,0.225208413,-0.060689336,9.536223738
2.47,0.218589491,-0.059367746,9.515733923
2.48,0.234188357,-0.066292685,9.532587803
2.49,0.220339451,-0.060926812,9.506364415
2.5,0.233423552,-0.085841127,9.535423688
2.51,0.232614579,-0.066740031,9.522982033
2.52,0.216442842,-0.073979839,9.534054126
2.53,0.233429144,-0.057692453,9.520413301
2.54,0.242586411,-0.067038645,9.537714606
2.55,0.230789505,-0.063354555,9.534530912
2.56,0.21181021,-0.07930582,9.52402271
2.57,0.219864505,-0.060941468,9.509976337
2.58,0.23340234,-0.059060151,9.511133871
2.59,0.233014475,-0.067143146,9.526287091
2.6,0.236006592,-0.07179515,9.539387606
2.61,0.230783678,-0.054368186,9.525771156
2.62,0.234065144,-0.071736489,9.537744779
2.63,0.23171568,-0.077960419,9.547944586
2.64,0.220921179,-0.080226037,9.53866691
2.65,0.246363651,-0.067642682,9.540701764
2.66,0.230278869,-0.066020057,9.522223917
2.67,0.226475694,-0.085970117,9.543567365
2.68,0.226278065,-0.068590178,9.525792303
2.69,0.237697851,-0.079415377,9.539270808
2.7,0.241432317,-0.066011438,9.528478665
2.71,0.215302171,-0.076295882,9.52462134
2.72,0.23781083,-0.054481303,9.526894756
2.73,0.220228169,-0.070186147,9.520752275
2.74,0.229111685,-0.081167025,9.537575661
2.75,0.230012038,-0.053141438,9.497396507
2.76,0.219634292,-0.074812084,9.545676338
2.77,0.240355316,-0.067224019,9.533092368
2.78,0.239712379,-0.071768447,9.545795619
2.79,0.214045982,-0.087615355,9.543366985
2.8,0.222134307,-0.090243127,9.547369654
2.81,0.223764608,-0.062609492,9.511085511
2.82,0.222749953,-0.071414247,9.526398227
2.83,0.238027833,-0.054532496,9.516040544
2.84,0.227057702,-0.086764926,9.542576441
2.85,0.224004,-0.077046647,9.527906185
2.86,0.225064025,-0.067810032,9.528633566
2.87,0.219131867,-0.072142232,9.542702371
2.88,0.233952102,-0.057891279,9.519255147
2.89,0.22137248,-0.082619494,9.531585273
2.9,0.21993379,-0.071774973,9.529640123
2.91,0.235476846,-0.056626031,9.527116981
2.92,0.232684812,-0.072329357,9.521078307
2.93,0.233528364,-0.058139477,9.540856166
2.94,0.218927691,-0.075885401,9.534578815
2.95,0.233278893,-0.062959224,9.528618008
2.96,0.231223899,-0.091051437,9.540204625
2.97,0.236476218,-0.056371422,9.522996949
2.98,0.229960351,-0.077556215,9.525831783
2.99,0.227321415,-0.077159807,9.520091126
3,0.23404765,-0.065052439,9.518967513
3.01,0.225953295,-0.067367441,9.531181318
3.02,0.235319846,-0.055950381,9.518539703
3.03,0.227630939,-0.069519937,9.53387249
3.04,0.220672763,-0.081827524,9.539062945
3.05,0.231529959,-0.053104567,9.514912792
3.06,0.226313537,-0.067610464,9.522643043
3.07,0.251095403,-0.054566131,9.526219444
3.08,0.217214296,-0.073002065,9.513382439
3.09,0.224647917,-0.075238227,9.538730266
3.1,0.226998674,-0.05776981,9.527161141
3.11,0.22194208,-0.076778401,9.539282169
3.12,0.21866866,-0.056022491,9.510943193
3.13,0.216507776,-0.071086111,9.538953522
3.14,0.234011613,-0.070814082,9.540107464
3.15,0.229160003,-0.068125505,9.517929371
3.16,0.205495377,-0.063766359,9.530534651
3.17,0.230543685,-0.071763648,9.531002808
3.18,0.233546385,-0.063955022,9.508677017
3.19,0.237080561,-0.065187512,9.53805225
3.2,0.22598875,-0.075178086,9.528567459
3.21,0.224691053,-0.053882873,9.512341996
3.22,0.231964315,-0.079031252,9.529867214
3.23,0.229761812,-0.079168194,9.516477024
3.24,0.238099362,-0.072509795,9.553811013
3.25,0.233468743,-0.073008254,9.529651329
3.26,0.227597341,-0.057561588,9.514710312
3.27,0.227427952,-0.070736073,9.529941086
3.28,0.227857053,-0.048117297,9.514147954
3.29,0.222369096,-0.086755436,9.528907275
3.3,0.220312292,-0.074043461,9.532232062
3.31,0.218698738,-0.085775907,9.531808175
3.32,0.251311771,-0.053870927,9.527584386
3.33,0.222371763,-0.074832733,9.527397181
3.34,0.227048642,-0.058796607,9.520768871
3.35,0.217761752,-0.071012927,9.528292871
3.36,0.21972271,-0.080172076,9.53571968
3.37,0.239848114,-0.054111457,9.531585094
3.38,0.234074044,-0.070465985,9.548426994
3.39,0.235642094,-0.065523519,9.546211476
3.4,0.213462192,-0.066229121,9.511146784
3.41,0.222119233,-0.06928847,9.542590023
3.42,0.216292165,-0.066788783,9.512047529
3.43,0.2167431,-0.07328837,9.525794448
3.44,0.234094798,-0.071487378,9.544245157
3.45,0.221720573,-0.062881782,9.527887735
3.46,0.228471206,-0.080844154,9.517692729
3.47,0.230090364,-0.077875404,9.536327439
3.48,0.237189503,-0.046751228,9.509374179
3.49,0.232252597,-0.07127857,9.526761619
3.5,0.225639167,-0.072653199,9.533840782
3.51,0.221821485,-0.060499881,9.52114843
3.52,0.216566539,-0.07482488,9.526930035
3.53,0.244904956,-0.05377742,9.527272482
3.54,0.237035786,-0.065026438,9.526513783
3.55,0.219582547,-0.07386881,9.51974343
3.56,0.235253354,-0.050514578,9.520707247
3.57,0.214742047,-0.070737159,9.519111768
3.58,0.222282217,-0.068959858,9.520019971
3.59,0.237457773,-0.05364461,9.515534092
3.6,0.232726472,-0.07770442,9.533612022
3.61,0.226997959,-0.080710835,9.525299613
3.62,0.230979912,-0.059837479,9.518022631
3.63,0.221744198,-0.064672596,9.532007953
3.64,0.223682431,-0.067120656,9.547139617
3.65,0.222711086,-0.06493486,9.517067613
3.66,0.221398239,-0.076144947,9.536994256
3.67,0.229840576,-0.07348695,9.535799128
3.68,0.239824893,-0.045209559,9.513300996
3.69,0.22200803,-0.078414067,9.537374726
3.7,0.232307755,-0.066683912,9.528025739
3.71,0.234510012,-0.07316677,9.528636862
3.72,0.231418148,-0.07669185,9.5419177
3.73,0.223078433,-0.077381091,9.522514903
3.74,0.229064788,-0.073167735,9.527143959
3.75,0.236861006,-0.054685807,9.54345099
3.76,0.210958145,-0.064943377,9.503942667
3.77,0.220642792,-0.062973021,9.530499363
3.78,0.228764535,-0.063420968,9.529251927
3.79,0.225298107,-0.075168759,9.539140175
3.8,0.212096367,-0.094863184,9.530158554
3.81,0.229507414,-0.061028614,9.512294972
3.82,0.233603448,-0.066769521,9.520336425
3.83,0.238228029,-0.068555436,9.533314445
3.84,0.217896319,-0.069750865,9.518669589
3.85,0.221077844,-0.078816855,9.538681218
3.86,0.229183834,-0.060517446,9.518861421
3.87,0.227356768,-0.066766124,9.516557492
3.88,0.218680872,-0.07524744,9.529949546
3.89,0.239364332,-0.064836736,9.516286633
3.9,0.221687768,-0.064624757,9.516797117
3.91,0.203118338,-0.08054806,9.526267688
3.92,0.224593494,-0.059032542,9.528419092
3.93,0.226790179,-0.08080393,9.538730627
3.94,0.230529743,-0.072038128,9.532603871
3.95,0.219769012,-0.071841336,9.524779889
3.96,0.229376767,-0.072888278,9.530674288
3.97,0.235456847,-0.062684828,9.542682166
3.98,0.245006737,-0.066226438,9.528563229
3.99,0.227830346,-0.068292255,9.51643723
4,0.239381822,-0.090328379,9.535136517
4.01,0.238595199,-0.060525384,9.530658933
4.02,0.212572063,-0.079811087,9.543229829
4.03,0.229231864,-0.054125169,9.516145343
4.04,0.22182286,-0.06732347,9.54030165
4.05,0.222005433,-0.067327977,9.53267214
4.06,0.218631492,-0.060865972,9.5296771
4.07,0.227805833,-0.056907229,9.526575944
4.08,0.222044942,-0.075091312,9.528568713
4.09,0.229459585,-0.066967799,9.534177691
4.1,0.22949924,-0.072155209,9.531989408
4.11,0.222432091,-0.069765956,9.519175934
4.12,0.224064769,-0.060946294,9.528102575
4.13,0.224750162,-0.091945216,9.539964133
4.14,0.232272049,-0.079926653,9.534266298
4.15,0.22787942,-0.065143347,9.515822853
4.16,0.225816422,-0.08098305,9.54107306
4.17,0.234039147,-0.053908635,9.531323357
4.18,0.225895765,-0.060243681,9.518576392
4.19,0.235324886,-0.065461872,9.543129394
4.2,0.229742001,-0.070162353,9.538960997
4.21,0.228847894,-0.082513845,9.538026204
4.22,0.234308137,-0.072912499,9.538049745
4.23,0.219474511,-0.085816018,9.515726275
4.24,0.225115963,-0.068100162,9.533257062
4.25,0.233123341,-0.065669351,9.538237416
4.26,0.219365728,-0.068914007,9.527123909
4.27,0.214599092,-0.067068148,9.52267974
4.28,0.235424628,-0.056028637,9.528098065
4.29,0.23263632,-0.078647222,9.525247507
4.3,0.224140273,-0.067831972,9.536792572
4.31,0.225936957,-0.062073421,9.524836556
4.32,0.22591325,-0.071418051,9.522758096
4.33,0.241742189,-0.063622782,9.545972827
4.34,0.218201539,-0.072488627,9.512104185
4.35,0.217748475,-0.072620836,9.532790031
4.36,0.245947743,-0.067573042,9.521661127
4.37,0.223387335,-0.081347997,9.525124841
4.38,0.225667644,-0.084695209,9.5491059
4.39,0.231600653,-0.06971353,9.527544771
4.4,0.219294577,-0.072762277,9.533593595
4.41,0.224306662,-0.054027231,9.523827863
4.42,0.218639614,-0.071737005,9.535612623
4.43,0.238245617,-0.062712382,9.541638598
4.44,0.220908855,-0.070668864,9.527140888
4.45,0.221506279,-0.073307627,9.537587104
4.46,0.234182635,-0.058144761,9.522843985
4.47,0.219063083,-0.082661241,9.540377436
4.48,0.232039371,-0.057426525,9.517309504
4.49,0.239195065,-0.056015669,9.525349351
4.5,0.212051489,-0.07105972,9.539227402
4.51,0.224536516,-0.050619179,9.514070933
4.52,0.224787134,-0.069438111,9.519432796
4.53,0.223824611,-0.065941275,9.524915458
4.54,0.227485662,-0.054376705,9.508565742
4.55,0.231857296,-0.06381457,9.534730188
4.56,0.237744902,-0.059233889,9.532536612
4.57,0.229863647,-0.068271557,9.536629201
4.58,0.237278657,-0.070868845,9.525678514
4.59,0.209598558,-0.096811596,9.531567889
4.6,0.20746383,-0.086862226,9.528073718
4.61,0.223248822,-0.062922317,9.525761909
4.62,0.228246757,-0.071098297,9.525379009
4.63,0.231215882,-0.061717367,9.520821629
4.64,0.23113935,-0.053558925,9.527651793
4.65,0.22063426,-0.074552325,9.526029855
4.66,0.222803209,-0.052132912,9.521299735
4.67,0.223205107,-0.053889601,9.512931415
4.68,0.217318,-0.067700098,9.517811453
4.69,0.213450718,-0.065970887,9.535988574
4.7,0.238841488,-0.065350147,9.53614419
4.71,0.232284619,-0.076157757,9.530789089
4.72,0.217209515,-0.068142817,9.519046958
4.73,0.228220485,-0.057069189,9.515306145
4.74,0.227083174,-0.077634215,9.545753377
4.75,0.224135731,-0.074562934,9.550570622
4.76,0.23307944,-0.053786232,9.522534827
4.77,0.224781319,-0.068375067,9.516631756
4.78,0.222217198,-0.077540078,9.530066935
4.79,0.219072505,-0.0744654,9.526441026
4.8,0.232680237,-0.062704045,9.510997522
4.81,0.23460838,-0.07267736,9.536382336
4.82,0.232898959,-0.075505418,9.538180878
4.83,0.224056471,-0.056515478,9.526429327
4.84,0.232853801,-0.070051808,9.529597686
4.85,0.229045081,-0.072352562,9.519613974
4.86,0.224869304,-0.086738388,9.54874532
4.87,0.233238315,-0.053235046,9.517113412
4.88,0.220546183,-0.067699441,9.529759493
4.89,0.243779054,-0.054748309,9.540228368
4.9,0.228360933,-0.084326047,9.526865764
4.91,0.229992543,-0.065504756,9.531146195
4.92,0.224570762,-0.064756078,9.513765637
4.93,0.22910709,-0.062792356,9.515249465
4.94,0.225419091,-0.07664024,9.539716475
4.95,0.218405179,-0.075705916,9.525576812
4.96,0.214489885,-0.054204193,9.534853613
4.97,0.232392721,-0.072484317,9.522123325
4.98,0.22241104,-0.087189137,9.545625154
4.99,0.231596372,-0.062943942,9.527932761
5,0.211099863,-0.073251017,9.536263674
5.01,0.233287872,-0.052131871,9.524737704
5.02,0.217675451,-0.070568294,9.520763282
5.03,0.249568913,-0.0627357,9.53666184
5.04,0.212489332,-0.066502967,9.523767789
5.05,0.226086244,-0.081588804,9.545967296
5.06,0.243027319,-0.050201014,9.516603913
5.07,0.226570911,-0.068542262,9.527063324
5.08,0.243445119,-0.052517553,9.528181563
5.09,0.216102687,-0.073668058,9.541288432
5.1,0.229451134,-0.083465293,9.528017595
5.11,0.246092781,-0.073977738,9.542779863
5.12,0.209619233,-0.077165899,9.524873324
5.13,0.223741966,-0.070828141,9.524307176
5.14,0.227090548,-0.061812496,9.513189185
5.15,0.224991472,-0.066913444,9.537353392
5.16,0.228182408,-0.053182949,9.528652393
5.17,0.233221132,-0.066236164,9.531862536
5.18,0.231541062,-0.076724381,9.533193824
5.19,0.227989997,-0.078404283,9.529635665
5.2,0.207857705,-0.076773345,9.525168462
5.21,0.239236156,-0.071845577,9.548478213
5.22,0.235915702,-0.051175881,9.525766711
5.23,0.212110418,-0.087211777,9.537106199
5.24,0.228355048,-0.065336945,9.517712927
5.25,0.234388717,-0.068388598,9.533279864
5.26,0.234868558,-0.072649119,9.549954025
5.27,0.21995109,-0.055950096,9.513880772
5.28,0.222758422,-0.080911472,9.542654534
5.29,0.2267133,-0.058883132,9.508510499
5.3,0.235122635,-0.07192355,9.54719224
5.31,0.236187794,-0.053419995,9.527588437
5.32,0.220332753,-0.071394291,9.534182081
5.33,0.236473438,-0.04907391,9.512610684
5.34,0.234827775,-0.070896937,9.543535181
5.35,0.219130355,-0.080221136,9.527866876
5.36,0.230299596,-0.064273904,9.532930358
5.37,0.234657723,-0.063967845,9.518926869
5.38,0.230459721,-0.08878973,9.548424745
5.39,0.221189025,-0.06881425,9.535372275
5.4,0.226738234,-0.058659537,9.514770383
5.41,0.234681953,-0.08880092,9.546893244
5.42,0.234351927,-0.060708718,9.532694098
5.43,0.219689842,-0.07571805,9.531340975
5.44,0.201569883,-0.085303108,9.540117309
5.45,0.22939879,-0.053767652,9.518217624
5.46,0.222439646,-0.084435176,9.53433609
5.47,0.241299603,-0.063424461,9.518148255
5.48,0.213721775,-0.075320191,9.529501879
5.49,0.231716279,-0.06046935,9.533293207
5.5,0.223853133,-0.082617161,9.540792384
5.51,0.226361588,-0.082026725,9.54019034
5.52,0.221898425,-0.060472548,9.515832929
5.53,0.241949142,-0.071895831,9.546696829
5.54,0.23706345,-0.057865093,9.514397162
5.55,0.249737839,-0.083039588,9.548945498
5.56,0.231245707,-0.06974397,9.513665684
5.57,0.208170668,-0.081894208,9.53138272
5.58,0.219601419,-0.066019439,9.52152184
5.59,0.218584334,-0.065704214,9.51859937
5.6,0.211253365,-0.082291873,9.534767411
5.61,0.232284213,-0.056882476,9.524003635
5.62,0.218925003,-0.06813376,9.52007102
5.63,0.240259,-0.067047934,9.534207425
5.64,0.225110803,-0.060354911,9.52539977
5.65,0.223874185,-0.075165959,9.531735025
5.66,0.242985126,-0.070329363,9.534393359
5.67,0.230492681,-0.070957771,9.529055989
5.68,0.225162628,-0.072026642,9.529314845
5.69,0.237141895,-0.05555183,9.528880625
5.7,0.240993616,-0.064643283,9.515267196
5.71,0.225446195,-0.075975872,9.54716105
5.72,0.232596343,-0.071997884,9.532760556
5.73,0.231486697,-0.06238566,9.531102723
5.74,0.224797496,-0.082670643,9.536152465
5.75,0.230031535,-0.081222631,9.546933387
5.76,0.239906109,-0.071401592,9.533347332
5.77,0.23733559,-0.066401267,9.5283143
5.78,0.235072729,-0.059446283,9.525884493
5.79,0.225801597,-0.086874145,9.541730229
5.8,0.216791415,-0.062539431,9.524127169
5.81,0.222941618,-0.078689746,9.539883706
5.82,0.23192056,-0.064222389,9.527980533
5.83,0.235892898,-0.077384619,9.538197562
5.84,0.223600335,-0.077930584,9.535857649
5.85,0.212734954,-0.070872517,9.524986971
5.86,0.223749592,-0.057406339,9.531237121
5.87,0.22314733,-0.057162929,9.521806598
5.88,0.226974517,-0.076228668,9.53800898
5.89,0.231140464,-0.063748315,9.528782688
5.9,0.213338181,-0.085973431,9.545838817
5.91,0.238360175,-0.059764684,9.528256984
5.92,0.244810271,-0.053478553,9.539560992
5.93,0.218136571,-0.089545177,9.552780018
5.94,0.226925052,-0.065477092,9.535290678
5.95,0.230236622,-0.057107697,9.507311689
5.96,0.219738155,-0.073963354,9.528312387
5.97,0.228552415,-0.05331291,9.50935106
5.98,0.216398031,-0.08669314,9.545907535
5.99,0.23863791,-0.071463769,9.535209001
6,0.230040141,-0.062781284,9.540732024
6.01,0.207963399,-0.086928843,9.52163629
6.02,0.241607214,-0.054568947,9.536408573
6.03,0.231448924,-0.065035895,9.530185967
6.04,0.235148298,-0.064686345,9.529242464
6.05,0.227437742,-0.0650034,9.523083262
6.06,0.224034382,-0.075954492,9.536322319
6.07,0.235916383,-0.08558664,9.536493472
6.08,0.223846651,-0.081012631,9.546714474
6.09,0.223916285,-0.055943154,9.535397487
6.1,0.218297274,-0.082651661,9.531723809
6.11,0.202847886,-0.072839025,9.529925217
6.12,0.226490837,-0.058808041,9.548638805
6.13,0.22603112,-0.059616034,9.514179679
6.14,0.217072894,-0.068206232,9.522012865
6.15,0.229002478,-0.069519038,9.535242741
6.16,0.241520692,-0.057342162,9.525988255
6.17,0.214253841,-0.067853309,9.537059058
6.18,0.217412627,-0.076100635,9.543339627
6.19,0.229730112,-0.068731678,9.523237715
6.2,0.233046534,-0.076236693,9.53468903
6.21,0.241829246,-0.050097561,9.514939189
6.22,0.21888757,-0.07390762,9.529160673
6.23,0.231529681,-0.064009101,9.536442305
6.24,0.231447517,-0.069754388,9.519722513
6.25,0.239030371,-0.066590849,9.531915886
6.26,0.232024406,-0.062625096,9.524329996
6.27,0.221970446,-0.072727724,9.517250495
6.28,0.230795853,-0.059243648,9.521873537
6.29,0.22517037,-0.064819057,9.52189853
6.3,0.227330182,-0.074405531,9.541177803
6.31,0.234845913,-0.057744115,9.528425386
6.32,0.212360972,-0.075602628,9.526770317
6.33,0.236901219,-0.060343628,9.532910808
6.34,0.21537795,-0.077930934,9.521743385
6.35,0.239008542,-0.061040712,9.528845399
6.36,0.211013862,-0.07102924,9.519694008
6.37,0.223257461,-0.06437981,9.515314399
6.38,0.229755261,-0.062596091,9.525696275
6.39,0.223189178,-0.077939965,9.535841133
6.4,0.228148287,-0.056770752,9.52143174
6.41,0.233190173,-0.067079982,9.530451452
6.42,0.235183309,-0.068332665,9.531533447
6.43,0.229835913,-0.087449083,9.557940894
6.44,0.239664946,-0.058605549,9.518643128
6.45,0.22176177,-0.073645708,9.548405313
6.46,0.20434543,-0.089380626,9.534253741
6.47,0.230277683,-0.059970045,9.524804046
6.48,0.224677205,-0.066219024,9.517969
6.49,0.222659594,-0.070738073,9.537961893
6.5,0.243688824,-0.055950652,9.526450632
6.51,0.237192561,-0.081731636,9.541235245
6.52,0.224262207,-0.078343168,9.555514552
6.53,0.212213308,-0.077799027,9.535934597
6.54,0.232203934,-0.062130175,9.524978189
6.55,0.226478459,-0.062188259,9.52317297
6.56,0.222349852,-0.069432949,9.533183014
6.57,0.236697991,-0.062951858,9.539629823
6.58,0.213509397,-0.075625216,9.531527554
6.59,0.230754103,-0.057723381,9.523806759
6.6,0.224377571,-0.076591912,9.534007605
6.61,0.212021473,-0.072494368,9.553168727
6.62,0.228387552,-0.056541046,9.503182613
6.63,0.224327141,-0.07297694,9.525583582
6.64,0.232021492,-0.089305614,9.547596481
6.65,0.239451356,-0.053846178,9.522280608
6.66,0.224707532,-0.090862502,9.54017649
6.67,0.224842618,-0.068720009,9.539891163
6.68,0.231464737,-0.067890971,9.525606853
6.69,0.224790558,-0.061695124,9.523473287
6.7,0.239353151,-0.064660203,9.536261436
6.71,0.224810653,-0.076451035,9.520430614
6.72,0.219276235,-0.083255915,9.528629928
6.73,0.215463301,-0.087499282,9.538218241
6.74,0.230837751,-0.06713739,9.545412564
6.75,0.214486737,-0.076350941,9.525135359
6.76,0.218646774,-0.079596378,9.551239446
6.77,0.232720627,-0.07778933,9.527213344
6.78,0.242261232,-0.05895943,9.522555732
6.79,0.224458798,-0.058007711,9.516019669
6.8,0.223851153,-0.08119047,9.546530325
6.81,0.236149355,-0.078797868,9.532696786
6.82,0.228138973,-0.071722813,9.537089189
6.83,0.215398255,-0.067966076,9.509654218
6.84,0.232714352,-0.068720544,9.532716337
6.85,0.234387129,-0.063424255,9.525084296
6.86,0.222826204,-0.06543872,9.527532132
6.87,0.224517481,-0.070780121,9.529857348
6.88,0.229864222,-0.070626585,9.524783315
6.89,0.223340862,-0.077202893,9.531500801
6.9,0.218575294,-0.065351496,9.516346107
6.91,0.24083565,-0.063947366,9.522707784
6.92,0.233149079,-0.080275918,9.537299607
6.93,0.230329662,-0.0727305,9.521459135
6.94,0.225864108,-0.070102285,9.544131985
6.95,0.226889798,-0.070384494,9.525451571
6.96,0.242696973,-0.062146935,9.533169527
6.97,0.229298622,-0.06523381,9.5247355
6.98,0.229042196,-0.066745766,9.523200221
6.99,0.242359269,-0.065658093,9.5322064
7,0.22118903,-0.064628542,9.532691595
7.01,0.233458241,-0.078857574,9.533251905
7.02,0.2343592,-0.063660826,9.525328745
7.03,0.211298616,-0.061224845,9.530566703
7.04,0.231055402,-0.065434467,9.518888065
7.05,0.221184276,-0.088299268,9.532062496
7.06,0.223126891,-0.070538902,9.527945039
7.07,0.210612265,-0.085851218,9.527896152
7.08,0.216134409,-0.051221876,9.523344461
7.09,0.215613029,-0.058464349,9.519583709
7.1,0.227352549,-0.061223825,9.524749782
7.11,0.226718517,-0.074061822,9.539010711
7.12,0.249173791,-0.059672721,9.536750191
7.13,0.216712115,-0.077951384,9.52548742
7.14,0.237432228,-0.059490175,9.533611407
7.15,0.225108413,-0.070534267,9.524557672
7.16,0.22377756,-0.079235545,9.547022496
7.17,0.226441529,-0.060129813,9.514946443
7.18,0.232584556,-0.069866371,9.535401814
7.19,0.230710491,-0.085542396,9.54711652
7.2,0.230671793,-0.052877666,9.5189486
7.21,0.21655078,-0.079007704,9.537416487
7.22,0.233807302,-0.057616441,9.520569555
7.23,0.228531915,-0.084621993,9.542628071
7.24,0.208686248,-0.084384291,9.541867352
7.25,0.231217898,-0.055659774,9.520736027
7.26,0.226402877,-0.07167057,9.528678844
7.27,0.220195319,-0.079614444,9.532808827
7.28,0.22411459,-0.056857206,9.517528634
7.29,0.227958,-0.074166841,9.527558643
7.3,0.239427821,-0.074059019,9.529113149
7.31,0.23456456,-0.062929586,9.536180809
7.32,0.234334662,-0.069108078,9.533964685
7.33,0.228889239,-0.063286056,9.522142194
7.34,0.227413783,-0.079199555,9.538908089
7.35,0.222180648,-0.081439812,9.537322911
7.36,0.22989976,-0.056863737,9.521750235
7.37,0.208398314,-0.090527885,9.548885494
7.38,0.212220871,-0.067901431,9.52942124
7.39,0.225604898,-0.056951676,9.5104841
7.4,0.221885399,-0.063929695,9.527221502
7.41,0.228425214,-0.077387529,9.512815558
7.42,0.21742674,-0.078664699,9.522917294
7.43,0.20508657,-0.082365629,9.532756346
7.44,0.240673023,-0.063477713,9.526181279
7.45,0.227975372,-0.064450744,9.521054726
7.46,0.223180349,-0.084992851,9.548497955
7.47,0.213484212,-0.100204653,9.544382407
7.48,0.227078236,-0.073748804,9.526862066
7.49,0.231815822,-0.054982221,9.527466304
7.5,0.232237941,-0.063546394,9.530377083
7.51,0.223385503,-0.085026915,9.535279803
7.52,0.244204888,-0.061653855,9.532834284
7.53,0.229672536,-0.056285197,9.517062596
7.54,0.214527942,-0.080658243,9.526464851
7.55,0.230414772,-0.06996713,9.535696155
7.56,0.231371375,-0.054955806,9.515713673
7.57,0.239105469,-0.061544264,9.523432107
7.58,0.242570473,-0.064845031,9.533281935
7.59,0.224403437,-0.069127555,9.546320452
7.6,0.229004567,-0.079375153,9.529581088
7.61,0.218032008,-0.062740648,9.521332741
7.62,0.223368499,-0.068395268,9.51971493
7.63,0.221091443,-0.084504606,9.546424391
7.64,0.243061608,-0.052957274,9.524937266
7.65,0.226464469,-0.071859059,9.535653808
7.66,0.232872811,-0.072208002,9.522448747
7.67,0.238140686,-0.054550183,9.515709328
7.68,0.231450129,-0.086083968,9.543788489
7.69,0.225197464,-0.077596016,9.534608413
7.7,0.227966239,-0.071563221,9.530325426
7.71,0.235780843,-0.060490937,9.522546798
7.72,0.216793287,-0.072012236,9.529429863
7.73,0.218627422,-0.078654091,9.516322346
7.74,0.236893905,-0.075455826,9.541191008
7.75,0.221411305,-0.064084278,9.521526746
7.76,0.219464995,-0.096054043,9.550045738
7.77,0.246386005,-0.053498661,9.531765265
7.78,0.231207394,-0.060759028,9.530485891
7.79,0.237870895,-0.068049807,9.527647623
7.8,0.224469099,-0.078730793,9.519061409
7.81,0.215721206,-0.079874917,9.541278252
7.82,0.251695174,-0.058212347,9.535409747
7.83,0.232916811,-0.064385383,9.522978033
7.84,0.230655317,-0.07372856,9.54459584
7.85,0.229233067,-0.067253077,9.527602024
7.86,0.21267427,-0.101529484,9.537223353
7.87,0.226790201,-0.067719271,9.509885851
7.88,0.219019966,-0.070097727,9.523223154
7.89,0.224219446,-0.073788545,9.517857422
7.9,0.22791161,-0.060759587,9.525009893
7.91,0.240815602,-0.070166508,9.54675698
7.92,0.231292532,-0.067318513,9.535354256
7.93,0.231750038,-0.05097363,9.511942718
7.94,0.226531507,-0.065592981,9.52914009
7.95,0.238041406,-0.078810774,9.550599296
7.96,0.227351094,-0.076196199,9.531568259
7.97,0.212770276,-0.065449259,9.510381562
7.98,0.239965028,-0.065981256,9.537207134
7.99,0.234166377,-0.062230838,9.528424013
8,0.220658637,-0.072825413,9.512979989
8.01,0.228244848,-0.068633409,9.532529064
8.02,0.216942159,-0.077584484,9.534535599
8.03,0.226479004,-0.069797111,9.537510027
8.04,0.236971676,-0.058128486,9.528111659
8.05,0.235982794,-0.064510722,9.530227667
8.06,0.231590647,-0.064993621,9.527441558
8.07,0.228680476,-0.0575571,9.53032489
8.08,0.234578117,-0.071738785,9.528166032
8.09,0.240347891,-0.0760542,9.539206376
8.1,0.22844205,-0.05718734,9.519723641
8.11,0.227549402,-0.077861061,9.524093089
8.12,0.220564567,-0.066466021,9.52905519
8.13,0.234959808,-0.067525202,9.525996105
8.14,0.225821847,-0.06640519,9.530106897
8.15,0.216369138,-0.075515978,9.538312628
8.16,0.232498804,-0.067496008,9.509752686
8.17,0.228570991,-0.073553116,9.537667181
8.18,0.222995742,-0.063660628,9.519975038
8.19,0.230874734,-0.060843703,9.525087117
8.2,0.225260326,-0.085214725,9.538208977
8.21,0.22812273,-0.064990854,9.52629016
8.22,0.23479502,-0.064238077,9.535795241
8.23,0.228298441,-0.082386829,9.529082678
8.24,0.228192205,-0.067791296,9.536395572
8.25,0.235086943,-0.063629252,9.549294241
8.26,0.235605146,-0.066266132,9.536745607
8.27,0.23531717,-0.058888658,9.522704599
8.28,0.230289777,-0.060083195,9.532503691
8.29,0.239362266,-0.061571746,9.520109753
8.3,0.241861445,-0.051473797,9.522734517
8.31,0.236708978,-0.049881908,9.514286248
8.32,0.219666648,-0.070040553,9.532782362
8.33,0.226475596,-0.064385971,9.529473386
8.34,0.235963721,-0.058799047,9.521345023
8.35,0.216601971,-0.069485829,9.531318704
8.36,0.228236355,-0.068863329,9.543832795
8.37,0.238341941,-0.051458406,9.522727613
8.38,0.23106708,-0.078060742,9.527912992
8.39,0.241661359,-0.055252619,9.525816436
8.4,0.222083721,-0.079443867,9.538670641
8.41,0.235395216,-0.070179873,9.518602218
8.42,0.225910244,-0.082963314,9.534096004
8.43,0.244254767,-0.059891242,9.527122421
8.44,0.215193516,-0.065926579,9.517926815
8.45,0.232371281,-0.06086833,9.540580118
8.46,0.228723617,-0.066902135,9.512963531
8.47,0.242532465,-0.081075923,9.53729898
8.48,0.231196053,-0.069779622,9.527690506
8.49,0.211620406,-0.088854438,9.541146644
8.5,0.231053626,-0.055011678,9.53223225
8.51,0.229172414,-0.063366975,9.529041857
8.52,0.216406256,-0.073416346,9.530688056
8.53,0.241719994,-0.060082569,9.530662156
8.54,0.222729354,-0.064471582,9.529320769
8.55,0.238868562,-0.06038513,9.537419062
8.56,0.215685505,-0.064172021,9.514276927
8.57,0.220674209,-0.066614996,9.519543934
8.58,0.225664835,-0.072826432,9.539721907
8.59,0.223894971,-0.067078963,9.530850545
8.6,0.223448079,-0.049515775,9.501664281
8.61,0.231267128,-0.063889786,9.522656695
8.62,0.228942398,-0.071929505,9.539537555
8.63,0.219931675,-0.063344328,9.514095871
8.64,0.218392202,-0.076238514,9.551100226
8.65,0.218605371,-0.084238994,9.535212262
8.66,0.221590132,-0.06724344,9.551928874
8.67,0.240464717,-0.064065989,9.524573186
8.68,0.217321378,-0.081078635,9.540790104
8.69,0.228585562,-0.061084609,9.528598603
8.7,0.218888465,-0.073654942,9.536094183
8.71,0.206184031,-0.088626181,9.556616197
8.72,0.226407962,-0.062261286,9.542264088
8.73,0.223518512,-0.070292324,9.524850482
8.74,0.232247235,-0.071325888,9.530158971
8.75,0.233723437,-0.059881571,9.517417762
8.76,0.223259553,-0.063317266,9.523832843
8.77,0.219813802,-0.064201385,9.519199324
8.78,0.225790891,-0.078022993,9.5470528
8.79,0.225359154,-0.072298021,9.523317564
8.8,0.219258315,-0.057141763,9.521686788
8.81,0.202336637,-0.075590501,9.52284994
8.82,0.233708282,-0.065425434,9.537426597
8.83,0.225425572,-0.069094831,9.528174445
8.84,0.220372418,-0.067815174,9.528993847
8.85,0.226486697,-0.07878259,9.540502026
8.86,0.228136907,-0.066112589,9.523724148
8.87,0.231579421,-0.064158435,9.534315704
8.88,0.23370889,-0.072295543,9.523884739
8.89,0.227214087,-0.078057152,9.540772671
8.9,0.235153283,-0.075596797,9.546513523
8.91,0.225520902,-0.077146976,9.529266075
8.92,0.211132634,-0.088162861,9.530706484
8.93,0.221913932,-0.077736753,9.535504802
8.94,0.234803347,-0.048564502,9.521855207
8.95,0.223714899,-0.086075355,9.543525367
8.96,0.219814968,-0.0864554,9.534061579
8.97,0.230492619,-0.059863216,9.516160333
8.98,0.223919686,-0.078050492,9.534143856
8.99,0.238594043,-0.072506808,9.539145852
9,0.217428212,-0.07302124,9.524909379
9.01,0.232425823,-0.06915876,9.551027038
9.02,0.247301043,-0.066991615,9.535012926
9.03,0.219617465,-0.081091919,9.546181435
9.04,0.222128113,-0.073699129,9.528000137
9.05,0.221716816,-0.067555024,9.530872563
9.06,0.231094141,-0.070594507,9.536873579
9.07,0.24641371,-0.056982484,9.525830808
9.08,0.206457753,-0.076855686,9.533386011
9.09,0.233895961,-0.060595528,9.53173716
9.1,0.232673686,-0.067017776,9.524683358
9.11,0.225132339,-0.068490735,9.525873545
9.12,0.21882897,-0.077895284,9.534524273
9.13,0.230902605,-0.060011526,9.537869937
9.14,0.232275064,-0.052234212,9.51106927
9.15,0.215830835,-0.072582257,9.513663149
9.16,0.227563484,-0.07886063,9.538032848
9.17,0.224681339,-0.061877907,9.515360176
9.18,0.23567312,-0.057021769,9.522837659
9.19,0.232259177,-0.060043195,9.53071417
9.2,0.243084953,-0.070900313,9.527281905
9.21,0.219323424,-0.067742436,9.520284976
9.22,0.233418594,-0.076501368,9.543306201
9.23,0.233560322,-0.072219662,9.540637339
9.24,0.244928024,-0.053631478,9.530629955
9.25,0.23555366,-0.062991634,9.533873552
9.26,0.225759717,-0.08452836,9.535838039
9.27,0.223168223,-0.069093095,9.535136776
9.28,0.236615404,-0.070345397,9.551697826
9.29,0.225110158,-0.061557816,9.513899841
9.3,0.214749454,-0.08105812,9.536306584
9.31,0.230334843,-0.056362565,9.5124918
9.32,0.219711574,-0.078811423,9.527256308
9.33,0.248019576,-0.05587792,9.522787324
9.34,0.21215245,-0.075302478,9.528687842
9.35,0.231239158,-0.063332829,9.544746229
9.36,0.227185961,-0.071717911,9.527796238
9.37,0.243475395,-0.076066634,9.537628977
9.38,0.215044433,-0.06958351,9.508896651
9.39,0.220520105,-0.068407484,9.538776408
9.4,0.24357531,-0.068043482,9.521771476
9.41,0.240713532,-0.063991011,9.550194705
9.42,0.249043438,-0.066341806,9.52752705
9.43,0.233184732,-0.065697369,9.54325459
9.44,0.218180518,-0.083409848,9.552123836
9.45,0.226944056,-0.054275778,9.522329768
9.46,0.225322534,-0.078178544,9.532549815
9.47,0.22072366,-0.078497509,9.53771936
9.48,0.22627265,-0.074942096,9.529581668
9.49,0.229296315,-0.054726288,9.517905333
9.5,0.233069499,-0.069613731,9.528206367
9.51,0.233283809,-0.06840091,9.544001808
9.52,0.225514987,-0.068563586,9.521935642
9.53,0.240947712,-0.076949312,9.543719386
9.54,0.225605711,-0.06628971,9.510656902
9.55,0.222477529,-0.080592184,9.538768636
9.56,0.23695686,-0.059066785,9.530309902
9.57,0.228809119,-0.075934451,9.540804181
9.58,0.233963529,-0.069968027,9.52352884
9.59,0.213069976,-0.079101264,9.522981276
9.6,0.227862794,-0.070301552,9.543148553
9.61,0.231854064,-0.061433938,9.531700287
9.62,0.220016234,-0.056006618,9.513082313
9.63,0.221120276,-0.071504558,9.527733898
9.64,0.230770656,-0.067402252,9.536427905
9.65,0.223376093,-0.061327795,9.515830687
9.66,0.240656418,-0.072400211,9.532952059
9.67,0.222520645,-0.077096815,9.539441734
9.68,0.233133217,-0.054407131,9.523919025
9.69,0.223205274,-0.066632286,9.519588504
9.7,0.220149108,-0.074880421,9.526198942
9.71,0.229622786,-0.055382792,9.539300585
9.72,0.233302031,-0.061644865,9.519349701
9.73,0.240174748,-0.072367829,9.529140339
9.74,0.223625547,-0.072677723,9.530344405
9.75,0.232674584,-0.078008765,9.52907373
9.76,0.232075416,-0.064725973,9.538136485
9.77,0.232763054,-0.075566928,9.527661261
9.78,0.222535789,-0.089160974,9.538724387
9.79,0.22745189,-0.08317539,9.540060283
9.8,0.207151433,-0.074284811,9.526981847
9.81,0.222369129,-0.057483287,9.535699024
9.82,0.229459095,-0.079918067,9.542933251
9.83,0.227648573,-0.073464612,9.532849904
9.84,0.230713559,-0.058676665,9.532500166
9.85,0.221828156,-0.063479936,9.519102877
9.86,0.224167862,-0.096753432,9.552729027
9.87,0.224763546,-0.072730348,9.531924597
9.88,0.227982351,-0.06561523,9.522888843
9.89,0.22878723,-0.088088332,9.532634795
9.9,0.227141903,-0.052799575,9.522483344
9.91,0.234252068,-0.065820421,9.531303128
9.92,0.223279114,-0.074140962,9.529757067
9.93,0.227969405,-0.05981529,9.530697253
9.94,0.217592859,-0.090984843,9.522147617
9.95,0.21257904,-0.081142779,9.545723098
9.96,0.23971709,-0.073887255,9.536812049
9.97,0.216511831,-0.083365011,9.541819004
9.98,0.234370492,-0.067019606,9.539762463
