Time (s),Acceleration x (m/s^2),Acceleration y (m/s^2),Acceleration z (m/s^2)
6.010000000000002,0.23920809098079746,-0.08280483900964115,9.532280955439685
6.02,0.24952623517448713,-0.0705356383049903,9.551169402200774
6.030000000000002,0.2173779507783927,-0.09356168497340665,9.533514978472196
6.040000000000001,0.21993782141628737,-0.08009405493019729,9.551574556790552
6.050000000000004,0.24223694451714936,-0.0665560479832069,9.529740938353232
6.059999999999995,0.2336819262919268,-0.0847644756011569,9.543187557254285
6.0699999999999985,0.22730212222797797,-0.07357063445056777,9.52370673813645
6.079999999999992,0.21715970828400377,-0.07723424617125568,9.534984306144265
6.090000000000003,0.2677518046423729,-0.05802688369593146,9.541408985242125
6.1000000000000005,0.2735198358289247,-0.0760212640656443,9.500042153878471
6.110000000000003,0.3490047593420834,-0.0672805334445203,9.535250756295882
6.119999999999998,0.30621358814865735,-0.061148913029346684,9.517402689294327
6.130000000000003,0.1164103716636642,-0.07951313018198163,9.537956952262672
6.140000000000004,-0.0676139389913197,-0.08157628670515686,9.546036488750282
6.149999999999998,-0.14118429196964088,-0.07254185071178791,9.525129033687955
6.159999999999994,-0.10936351017223123,-0.1046430273853933,9.536191311497214
6.169999999999997,0.20598267190834194,-0.07763606996563009,9.54368718209094
6.180000000000006,0.5993079371469527,-0.057663183351287735,9.498612541199684
6.189999999999995,0.9787242636506208,-0.059587837485925804,9.529500454077997
6.200000000000001,1.0727806395220465,-0.052304800580121394,9.523962420021725
6.209999999999998,0.9452436450245251,-0.06476515466757665,9.511085248382065
6.220000000000003,0.538501532558789,-0.04873993570955747,9.513901973518177
6.230000000000001,0.06166665547209004,-0.08770943663011789,9.536964140200114
6.239999999999998,-0.5089359900010176,-0.09586794910870398,9.54141584687884
6.250000000000005,-1.0085876886171632,-0.1168963485818214,9.535388476330706
6.26,-1.0134578846184608,-0.10048519466038464,9.579955018120812
6.27,-0.5550906301727493,-0.09443404935202865,9.547530938755205
6.280000000000001,0.10444182900897879,-0.07496068727193461,9.519584989891982
6.290000000000001,0.6611726594822084,-0.06543372208722394,9.527242927143098
6.300000000000001,1.1463819910870658,-0.05122860278878469,9.509610572063925
6.3099999999999925,1.5110208343268392,-0.04576609043802735,9.537302331182678
6.319999999999997,1.6291946672215978,-0.0503524413975569,9.51632663355373
6.329999999999997,1.5344247669715987,-0.059921646032870465,9.533033604536397
6.34,1.002614856897146,-0.04992895887758408,9.517241590137193
6.349999999999991,0.07945320256199959,-0.07566317000172701,9.528342810365553
6.359999999999992,-0.8684030971184522,-0.0967179720775136,9.543816937301102
6.369999999999993,-1.713161913550225,-0.12332484550643381,9.54212122903551
6.379999999999995,-1.8093311983415075,-0.13708271545515482,9.604744348568708
6.389999999999991,-0.9760405468738751,-0.07317449863824171,9.542992193308864
6.399999999999999,0.0725024827555675,-0.08230960552721599,9.514158830170173
6.4099999999999975,0.8147861733420554,-0.0563595371624791,9.521321615621764
6.420000000000003,1.3018290665919687,-0.05224178787091816,9.510276437989148
6.429999999999995,1.5309772662902532,-0.04492223780591233,9.526129709415436
6.439999999999999,1.631002687219525,-0.05471513005964002,9.530841017213504
6.450000000000001,1.5764726797481219,-0.05364629976997209,9.525705274739986
6.4599999999999955,1.3049335127543402,-0.0517000794314798,9.501584534710862
6.469999999999993,0.4430059404674579,-0.0539790085201051,9.526168603609939
6.4799999999999995,-0.4245577168582242,-0.09477651129833359,9.53249759300823
6.49,-1.3301827542111728,-0.10966859083491165,9.549078020650834
6.499999999999999,-1.8435530183740336,-0.14243035740932675,9.57108162362987
6.510000000000003,-1.4666956426901407,-0.09351564881518132,9.539597612437213
6.519999999999996,-0.44142582668953106,-0.10024716896694823,9.558952296820674
6.5299999999999985,0.49669186112182795,-0.05945048071088355,9.507420114660606
6.539999999999998,1.104840348268197,-0.06458715344888069,9.501515054390264
6.549999999999995,1.4478259223442012,-0.03783139941125588,9.526043797365082
6.56,1.576483979804209,-0.04412818716692673,9.522533776735315
6.570000000000002,1.5867027505433229,-0.057933121552778986,9.509200649301382
6.579999999999994,1.5055687505540016,-0.05064714711187312,9.482093762195165
6.589999999999991,0.8973021348339262,-0.04853578356374555,9.53213625990854
6.6,-0.009731696998116119,-0.08139149053855155,9.529127065444632
6.609999999999999,-0.9427802383618201,-0.12480068881787516,9.561318584905935
6.62,-1.6882924146646507,-0.10274392787690408,9.526559735249654
6.629999999999992,-1.7666835393127382,-0.15474952029883843,9.583765032665866
6.6399999999999935,-1.0320642681037535,-0.07601410966841868,9.552946415204781
6.649999999999998,-0.029957006977163234,-0.11009028383920778,9.523830469632319
6.660000000000003,0.743686097570054,-0.052404219616034885,9.482889993021278
6.669999999999998,1.2906568360259534,-0.06568418961625377,9.521234816838868
6.679999999999994,1.5438042565455203,-0.026615163912346453,9.525416677203504
6.689999999999999,1.6120453026748434,-0.05540299667130072,9.535038156079
6.699999999999996,1.6150609361709425,-0.04013380789413318,9.521924041610514
6.7099999999999955,1.3086129084226514,-0.06424617330465703,9.50564763404573
6.719999999999996,0.5185781753093467,-0.05348288495426895,9.528717645061814
6.7299999999999995,-0.386245134652712,-0.09817294859010997,9.54768771400737
6.7399999999999975,-1.3081811829970125,-0.11003540418826106,9.534493249057718
6.75,-1.8136435743886192,-0.1236143906639977,9.584681678579795
6.760000000000004,-1.48797885953371,-0.09796220241660496,9.568546057866897
6.769999999999996,-0.4812310529380614,-0.09787340505849457,9.549360572002264
6.7799999999999985,0.4471127828690402,-0.05188067309928217,9.512800117089304
6.789999999999993,1.0607680920753884,-0.061889539514715215,9.511284590234874
6.799999999999995,1.4211137222160906,-0.040406792988603175,9.527482324822618
6.809999999999997,1.5861808963401327,-0.04855646870364228,9.5197914512186
6.819999999999991,1.613238083754903,-0.04775679614836604,9.506920877683383
6.829999999999992,1.4607725271543086,-0.05627492119402058,9.536719073122455
6.839999999999995,0.8420131791262262,-0.05526553545241992,9.515719681450143
6.849999999999996,-0.08800167712943674,-0.09553559506498789,9.547320172784266
6.859999999999999,-0.9832523510620135,-0.09369432683878012,9.5310677325327
6.869999999999999,-1.7390022271319232,-0.11741761083283483,9.538764140437943
6.880000000000001,-1.7442722575678,-0.10527877337430626,9.55828755490331
6.889999999999999,-0.9929822731775275,-0.1012857328208973,9.56070201463106
6.9,0.05165939269396643,-0.0779658508563421,9.521337568716296
6.909999999999998,0.7971627792632603,-0.0618552960081641,9.507550750733992
6.9199999999999955,1.3407488086475796,-0.06765021183314336,9.53453473015892
6.929999999999997,1.5218008659071434,-0.036680506681416467,9.524648647925034
6.940000000000001,1.5982895872967124,-0.054263080537771013,9.528931298787182
6.950000000000001,1.5754944591037428,-0.04847892477063992,9.489484832650428
6.9599999999999955,1.3171237940309102,-0.049425664598045475,9.546254581430471
6.970000000000005,0.4595701943083224,-0.05955047869108493,9.510567039684771
6.979999999999998,-0.46667293483285954,-0.10500259834486514,9.543015849684148
6.990000000000002,-1.349880464376808,-0.08671667936784472,9.520917915323942
6.999999999999995,-1.8526515597980802,-0.14502494018085935,9.57844207693017
7.009999999999997,-1.5156782660228274,-0.08501068150104245,9.550342439328508
7.0200000000000005,-0.523816206745506,-0.11378081646807597,9.55891181431166
7.03,0.363721645498695,-0.08780555393405277,9.5171420763188
7.040000000000005,1.0461640978839388,-0.04842737115987772,9.502192669535892
7.049999999999997,1.4622163541391195,-0.05173768919175259,9.529641110851506
7.060000000000002,1.6323349739216102,-0.04333196117164107,9.511405080648622
7.069999999999999,1.6292744620586526,-0.04881011459090156,9.50635750005406
7.080000000000003,1.4742276677378594,-0.03977564505473142,9.514450672127476
7.09,0.8503308179321357,-0.061336973515492596,9.514591471294592
7.099999999999995,-0.07452824047981589,-0.09583435050994828,9.542097425426126
7.109999999999993,-0.9173271066816984,-0.08958409588622179,9.53265010850382
7.119999999999999,-1.7060898263515145,-0.11561310222314117,9.540643634398146
7.129999999999999,-1.7116874642735573,-0.09571451559526217,9.566228942383667
7.139999999999999,-0.8728039401827937,-0.0899334559450872,9.54537703280266
7.150000000000005,0.09670936609928121,-0.08690505617701498,9.512525129056243
7.159999999999993,0.814026589309878,-0.0518172687646496,9.516731067651053
7.1699999999999955,1.323351935338567,-0.06509272063172489,9.515669051159918
7.180000000000002,1.5401933376541357,-0.03193990428798566,9.531987574035092
7.190000000000002,1.6397105796329428,-0.05353041627090053,9.515260522350514
7.200000000000009,1.5663951704685557,-0.03694608595510573,9.508502278603464
7.209999999999998,1.2026334126556066,-0.0606643951065099,9.504155095263595
7.219999999999998,0.3376651682117729,-0.05237660799945119,9.520420746547941
7.230000000000007,-0.5093586441673102,-0.09330486982309422,9.52556349136281
7.240000000000002,-1.3791882467093357,-0.10797590277106005,9.553793323427614
7.249999999999997,-1.8315866882332645,-0.12556797944735862,9.55627354922563
7.260000000000006,-1.4722664008690414,-0.09282141833423245,9.581142641157557
7.269999999999993,-0.4409228754872494,-0.09219525346974426,9.529651966229723
7.2799999999999985,0.43616362642007966,-0.06778697883949525,9.52105396125911
7.289999999999998,1.094099879273696,-0.0515388150464104,9.517158510671544
7.299999999999998,1.4323911360388704,-0.050412237768109554,9.529576922725088
7.309999999999994,1.594572646936168,-0.04667988185548815,9.521328021748731
7.3199999999999985,1.584425986198903,-0.053667871581516854,9.479196918820069
7.329999999999999,1.4562724609006314,-0.045556758361297904,9.514082109690452
7.3400000000000025,0.807803732531001,-0.04760862700398816,9.509717967358448
7.349999999999998,-0.09569195775323212,-0.08301066898767491,9.510231595409518
7.3600000000000065,-0.9955148659561124,-0.09382699911944359,9.560403604330633
7.370000000000004,-1.707227293719501,-0.10432502593631669,9.523547728464534
7.379999999999996,-1.7171885113113279,-0.13042490996030773,9.585861687916978
7.389999999999996,-0.9675613498998719,-0.08808305406304312,9.5425365754376
7.399999999999996,0.05193331239245331,-0.08059747893857643,9.538708273115374
7.410000000000001,0.7894960150947354,-0.05268936718953679,9.508904379095572
7.420000000000003,1.3070269859738473,-0.05228094254406561,9.52006824474349
7.429999999999994,1.5385848247437806,-0.046731913774512135,9.520417070461532
7.439999999999995,1.6135457150890686,-0.0515454163734959,9.50667392943288
7.449999999999997,1.5724064395733581,-0.04449861412750326,9.50717885894724
7.460000000000003,1.2598429985331607,-0.05454227006298145,9.501677285692027
7.4699999999999935,0.4395526485144706,-0.07950747800599826,9.539532968423138
7.480000000000003,-0.4440265166075014,-0.09269467957098797,9.528875206519306
7.490000000000004,-1.3525854368672046,-0.12229891016065678,9.561625307173385
7.499999999999997,-1.8020531989910957,-0.1213696751209848,9.537174617357556
7.510000000000001,-1.5282002095809941,-0.11574488829384022,9.579517351632571
7.520000000000003,-0.5157519049091591,-0.08338826861635588,9.52398176741687
7.529999999999998,0.37279531732305254,-0.07660630085797927,9.509585335836336
7.539999999999997,1.0059746947719481,-0.06404226442187688,9.503808949532694
7.5500000000000025,1.4313887850830262,-0.052617519608842984,9.536509821029096
7.559999999999985,1.6425927756449037,-0.047114206936690946,9.529097348501152
7.569999999999999,1.6765689844547917,-0.04785816607804801,9.478519947071302
7.580000000000001,1.4412012410667479,-0.058987568108476496,9.521469023260085
7.589999999999996,0.8135053447332771,-0.0531245361079668,9.53336571555155
7.6,-0.08644373887347542,-0.09129059638517759,9.529841960618821
7.609999999999998,-0.9440938882067379,-0.1023511581605437,9.560013699098636
7.620000000000002,-1.6832059745547485,-0.11047301346942909,9.534893384310186
7.629999999999996,-1.712419027550051,-0.14126126183904783,9.574576998905105
7.6399999999999935,-0.970076954691468,-0.09085258242363439,9.536610830815908
7.650000000000005,-0.025645695195766784,-0.08596025710592403,9.514954387847336
7.659999999999995,0.7154903201865339,-0.050708023661913744,9.488690764284971
7.670000000000002,1.2818670951117337,-0.07573339674939114,9.531581318299247
7.6800000000000015,1.5635569470524566,-0.026608497566713095,9.518848487511882
7.689999999999997,1.6282406781417464,-0.06266039390580737,9.499173256387538
7.699999999999998,1.5851317422171671,-0.04312950239974388,9.499282120244683
7.710000000000003,1.2686830188918772,-0.06499027903318334,9.531379219422071
7.71999999999999,0.4388534696488388,-0.0711285259245261,9.527034500167614
7.730000000000003,-0.4056783826354784,-0.08374967096351021,9.523489227881079
7.74,-1.2945742465889152,-0.11460771655268158,9.548093931063063
7.749999999999997,-1.8012505274835158,-0.11640505977752519,9.553154505513788
7.759999999999999,-1.5188878514478352,-0.11276653301720525,9.581730694141946
7.770000000000001,-0.5623626249957653,-0.08011473947400824,9.522605825494573
7.779999999999995,0.32587556976833043,-0.06742130483728136,9.514376630464689
7.7900000000000045,0.9891306970794157,-0.059241978079206024,9.497196467190115
7.799999999999993,1.395051250865248,-0.06188381815622492,9.531845306485296
7.809999999999997,1.5906744188998128,-0.0317311022103232,9.526161065639233
7.819999999999999,1.6416162815414972,-0.054280009575461384,9.495207117627885
7.829999999999999,1.4890459372760034,-0.04911454683828722,9.517642083872959
7.839999999999991,0.8794652062599183,-0.048139708117292956,9.517785775920542
7.850000000000003,-0.010743758789051315,-0.09760670150411549,9.518394617258853
7.859999999999999,-0.9009605289618466,-0.10575526711907489,9.562514877175435
7.870000000000002,-1.636628141416142,-0.12489004828750959,9.528511034366076
7.879999999999995,-1.7446421911534389,-0.13129007280983646,9.57208141784096
7.889999999999996,-1.0749188920999784,-0.11867391600001317,9.548217580077345
7.899999999999998,-0.061578715753399425,-0.09328600664500467,9.529202994656597
7.910000000000003,0.6793441880961988,-0.055483270146064606,9.499737701990576
7.920000000000003,1.3170000625171485,-0.05888843304435255,9.505392759947497
7.930000000000002,1.5698556220357214,-0.04489993682006364,9.517632582751007
7.940000000000001,1.6508072715116915,-0.052760149936076174,9.516532393175384
7.950000000000003,1.5749527742781047,-0.04247223960742468,9.511461162500456
7.9599999999999955,1.246137262900006,-0.048816598285130276,9.517652453481023
7.969999999999998,0.4048770479299273,-0.06376835022911459,9.49606334354895
7.98,-0.4573186738218003,-0.09358847527674402,9.542362033392221
7.989999999999999,-1.3561460729116457,-0.10020140714601405,9.540281061410159
8.0,-1.8396246151570317,-0.12684750934188663,9.564217597515823
8.01,-1.4957249352217554,-0.09725872810238785,9.546226617726013
8.019999999999994,-0.5060141293797193,-0.09508504676145876,9.558286660182713
8.029999999999996,0.38811875889896985,-0.06838266827409414,9.507076923043382
8.039999999999996,1.0518800568949476,-0.056637231259222584,9.531214724066787
8.049999999999999,1.4857004617985958,-0.04859737921372967,9.516061833690468
8.06,1.586513512251618,-0.03981318513505667,9.522949114808524
8.069999999999997,1.596942679582042,-0.052970474913327556,9.499940452716285
8.079999999999995,1.4804979128437994,-0.04568074795071054,9.508604128203993
8.090000000000002,0.9144437453658525,-0.05999612299875224,9.535128944324583
8.099999999999994,0.04904353163615851,-0.0821836243879045,9.502143394691041
8.109999999999994,-0.8169851957643157,-0.10380671992725245,9.566254165833865
8.11999999999999,-1.650436805755935,-0.10961518706751175,9.547347380215239
8.130000000000003,-1.7978040782503006,-0.1452326052018461,9.565723622874499
8.139999999999995,-1.0460305021877754,-0.09358921594041048,9.555020060393506
8.150000000000002,0.024360616025079718,-0.06631615748417392,9.513884443774755
8.160000000000005,0.7555406785522265,-0.05857423780665067,9.519682330410982
8.17,1.3394518179872519,-0.05827043744536285,9.506346633914715
8.180000000000001,1.5760212183196871,-0.039872936494110243,9.512361623708738
8.189999999999998,1.6204459004618843,-0.05479619904488355,9.511789790916188
8.199999999999989,1.5439156783884747,-0.03619498204456295,9.498721934291211
8.210000000000003,1.13914007114329,-0.06909954153897373,9.539596969947075
8.220000000000002,0.33681408366838894,-0.06278172277133932,9.534898906172982
8.229999999999999,-0.5166261545031421,-0.10753724392347933,9.54944346852317
8.240000000000004,-1.4146374889484659,-0.09977623882312212,9.532692577999805
8.249999999999998,-1.7978441730556842,-0.13088604342125432,9.550625717686724
8.259999999999993,-1.4124655288682868,-0.11047789275584229,9.560315847807036
8.270000000000005,-0.4349847469219161,-0.08276739411906758,9.542208738640248
8.280000000000006,0.41626449678840977,-0.08042137075283391,9.499121224293493
8.290000000000001,1.0891344937575596,-0.06092922125939982,9.512620424840206
8.3,1.4582749820737095,-0.05936839950722291,9.53893481143841
8.309999999999993,1.619605576406622,-0.04358363724470642,9.516118367104438
8.319999999999988,1.6370928273575736,-0.04869859343516953,9.523574027495464
8.329999999999988,1.4052777253144002,-0.04824907236086983,9.522642067529166
8.339999999999995,0.7652985112746228,-0.050547871005710905,9.517637843395004
8.349999999999996,-0.12569783135379747,-0.09437500774013485,9.526989885521518
8.359999999999996,-1.0168788650191343,-0.10015764030629698,9.559815687825678
8.369999999999997,-1.7039913543743843,-0.11036128689693367,9.50442427418968
8.379999999999995,-1.6947509637985658,-0.11514875696141257,9.577753520400854
8.389999999999995,-0.9453297390171018,-0.09094482593027121,9.550741820269687
8.399999999999993,0.06843519191143453,-0.0770679350352598,9.526892442720538
8.409999999999997,0.797189217726166,-0.057388492293942904,9.506116272618195
8.419999999999993,1.3432142577105775,-0.06550893939265505,9.533604319028932
8.430000000000003,1.5626502578429673,-0.028198906742249893,9.512346168189394
8.439999999999998,1.6300678290115476,-0.0527525559250857,9.52949357659476
8.450000000000005,1.5824696446397786,-0.04220986647644016,9.505468340327816
8.460000000000003,1.1835456715453259,-0.060245584404479635,9.488343054067398
8.47,0.33273241703958334,-0.06322958175477371,9.521857584982326
8.479999999999999,-0.5820054766771208,-0.0885663091518673,9.54493869681654
8.49,-1.4873342389002457,-0.11631421913029022,9.508979093293664
8.499999999999998,-1.8005721373542347,-0.12080679215317455,9.573983393022283
8.510000000000002,-1.349298075258219,-0.10170607934699266,9.562410494157316
8.519999999999998,-0.3398846743672875,-0.0731626529834751,9.553218465392973
8.529999999999994,0.47358970084974866,-0.06365899518952084,9.503506997211417
8.539999999999992,1.095056916156753,-0.05142394105446428,9.525068877521155
8.550000000000002,1.5033726294664027,-0.04487304390804723,9.534990909153864
8.559999999999997,1.6255529040728116,-0.045062393774289895,9.519384302534705
8.569999999999999,1.6119132131687899,-0.051854271887896396,9.523638539498599
8.580000000000002,1.4114083234389347,-0.043893475979293724,9.508313900911364
8.589999999999991,0.69652856717803,-0.06821329270602959,9.545459068753178
8.599999999999994,-0.1935136804357726,-0.0694038581829105,9.520897575273027
8.61,-1.0999524387855046,-0.09457789250251966,9.53275633405425
8.619999999999989,-1.7209667829635102,-0.12572164939189037,9.55133144436645
8.629999999999995,-1.671647601123962,-0.11958538303206753,9.57822518611532
8.639999999999999,-0.864053581699123,-0.09501652548373389,9.574839964861356
8.649999999999995,0.13910429454144463,-0.06758463120541446,9.505900656270736
8.659999999999998,0.7925993431860051,-0.07325014991243879,9.520996177686271
8.67,1.3913633823166962,-0.04228539125017668,9.524732586386923
8.679999999999996,1.5688950670840263,-0.0546686661073751,9.53418125822405
8.689999999999994,1.61100854166509,-0.03798264377327369,9.495116325892564
8.700000000000003,1.5108225626812655,-0.0535912270172608,9.517812142704225
8.71,1.1956349828160668,-0.04648748264630083,9.53012897486947
8.719999999999997,0.3399986675582851,-0.08299390360514584,9.529613106603062
8.729999999999995,-0.5268658084524305,-0.08851172462266885,9.546233923866657
8.739999999999997,-1.4148999357227106,-0.12430714079651571,9.545196571778497
8.749999999999993,-1.8055475831223458,-0.13698120352556634,9.564590662352101
8.760000000000003,-1.3895979069693303,-0.10591333189996302,9.56789869510829
8.769999999999992,-0.30613079772677637,-0.103063431699945,9.519301428283939
8.779999999999994,0.5198007483929626,-0.05787278530288466,9.525845261063056
8.79,1.1864209247082003,-0.05734741654656387,9.517388121139454
8.799999999999997,1.5133593992863232,-0.05614378869251908,9.546870258048704
8.810000000000008,1.6281543643781324,-0.046299928842612616,9.516420071813702
8.82,1.5767740662858174,-0.024340837907702785,9.524235009511072
8.830000000000002,1.3387240487005658,-0.05509030031847063,9.526747905183607
8.840000000000002,0.6206079492743993,-0.049545649126099725,9.514600889623566
8.849999999999996,-0.2600633225653951,-0.07787337952203115,9.533179661224137
8.859999999999994,-1.1139350917211572,-0.08832260669050677,9.545250038006932
8.869999999999997,-1.7325584983889828,-0.13560847568031956,9.532855906205354
8.879999999999999,-1.63130402895676,-0.11396081585193978,9.572088980912033
8.889999999999997,-0.8135059520944108,-0.09547580331882526,9.524150920811456
8.899999999999997,0.1750234824304755,-0.056137642240130105,9.535643546637473
8.909999999999997,0.88979048389843,-0.055657657226374446,9.508199967757806
8.919999999999995,1.4197297293170834,-0.06437476670537386,9.551939950239898
8.929999999999998,1.5971172564396892,-0.045026970608775356,9.497745541408783
8.939999999999996,1.6028478890760203,-0.05193947497935037,9.517181566806109
8.949999999999998,1.5168259276128246,-0.041988404717262555,9.5056155713002
8.959999999999999,1.0912479500838042,-0.06363342636878419,9.54159789544117
8.969999999999999,0.2607419002701368,-0.06588047981103505,9.51886792008827
8.98,-0.5889098215519757,-0.09433186582288998,9.539307049798953
8.989999999999998,-1.4447253706800651,-0.10909315775709538,9.54817416544658
8.999999999999998,-1.7999196151149863,-0.1334791447480104,9.549141042830845
9.009999999999993,-1.3782019796340066,-0.10390876260673322,9.577334885303742
9.019999999999998,-0.35900625287750526,-0.09510110676145496,9.527717190700871
9.03,0.49813631038490663,-0.06520196150429139,9.520985131117342
9.039999999999997,1.1320441524081915,-0.06055133855421859,9.544090661073941
9.049999999999995,1.4898044000476443,-0.054838887991924115,9.52441269257077
9.06,1.6239259272324413,-0.05194900608581434,9.533480228872923
9.069999999999991,1.6146575210782723,-0.04774950322400625,9.488689248645022
9.08,1.3895238676236676,-0.0505100895495067,9.5343942636086
9.090000000000002,0.6787735749565161,-0.05191814146998702,9.514232349111458
9.100000000000001,-0.22855565615146137,-0.09789394633091932,9.536476322904125
9.109999999999998,-1.0756584124753295,-0.1041513664775733,9.552669194594285
9.12,-1.7312823060588163,-0.11665713935311091,9.53695445572108
9.130000000000003,-1.6557059386333846,-0.11107477804133367,9.57462748401562
9.139999999999995,-0.8400721697376521,-0.08298210470574166,9.528588613598185
9.150000000000004,0.13501813427425802,-0.08412594242926359,9.522447288252394
9.16,0.8660317125067245,-0.04518756450024516,9.512825259063163
9.169999999999998,1.3799657025444036,-0.06859662735807956,9.535809586254995
9.179999999999993,1.5774357799942376,-0.03589753868789823,9.48857205244685
9.189999999999992,1.6070535109110042,-0.05386827741165097,9.52647826521848
9.199999999999998,1.576950713498575,-0.04175306703924609,9.489239939985364
9.210000000000003,1.1602649864059598,-0.07010966363416993,9.548942876360334
9.219999999999999,0.31960477375438806,-0.06700216101570446,9.511083553179166
9.229999999999999,-0.5670458493555438,-0.11768535256615867,9.543124905140862
9.239999999999993,-1.4068321092455132,-0.0940861281822959,9.532466875669867
9.25,-1.811949023513294,-0.13805715456481885,9.566910059265878
9.259999999999996,-1.4126638709692283,-0.10381420718701541,9.574656244970729
9.270000000000003,-0.42203344398309134,-0.09353158693275915,9.518678280943469
9.28,0.4352418470236587,-0.06895435205180107,9.517365406754799
9.28999999999999,1.1371759428446415,-0.05283487712681192,9.524546040613389
9.29999999999999,1.4951251349070476,-0.05494705998115295,9.528700138642474
9.309999999999986,1.6213108376920895,-0.04674699378838543,9.524655180114003
9.319999999999997,1.6035908383200455,-0.032332832377601296,9.519279716643606
9.329999999999995,1.3712080554934667,-0.06056386511777763,9.528818058100056
9.339999999999995,0.7100536640427141,-0.043454867301631395,9.5033287143916
9.34999999999999,-0.14660422040024026,-0.09059903919164725,9.531601538720462
9.359999999999992,-1.0192159081391126,-0.08466967460686317,9.553209728390604
9.369999999999997,-1.724358869108404,-0.13804158656250765,9.539497086615025
9.379999999999995,-1.6764163495721118,-0.12380787157306547,9.572701766668343
9.389999999999995,-0.920878006565152,-0.09496608435029592,9.535133934393333
9.399999999999993,0.09033791068588137,-0.06679564806719986,9.509742649590734
9.409999999999997,0.8237938526999254,-0.05351315195151123,9.507518172104765
9.420000000000002,1.3659107481799393,-0.06442710566984296,9.549245054100108
9.43,1.5519176886421362,-0.02083834089052595,9.494085353243307
9.440000000000001,1.6263314304492063,-0.051386212680375465,9.515224383731438
9.449999999999992,1.5948545846647173,-0.03708249473079983,9.52145482195393
9.46,1.1943180269044127,-0.06216319706793305,9.526849658552946
9.469999999999999,0.3436764004707276,-0.053746049616964345,9.513604471783117
9.479999999999999,-0.5414233220504232,-0.09587340882118173,9.518385887352899
9.489999999999998,-1.3779689531774735,-0.08473417920334311,9.548850699115153
9.499999999999996,-1.78726577802621,-0.1414025114048761,9.541805980343383
9.509999999999996,-1.4394925941258598,-0.09898864584441956,9.578918274248029
9.52,-0.46377148872276397,-0.07447168213354728,9.517861095786708
9.52999999999999,0.41805299139293833,-0.05758658689337473,9.521933523629453
9.54,1.099810881218706,-0.060380191328428055,9.521039188788253
9.549999999999994,1.5223917992787543,-0.04722160574839389,9.507547574527884
9.559999999999995,1.608052977001894,-0.04779208792355087,9.5369102690049
9.57,1.6007442966914325,-0.03263489795462248,9.500652931278886
9.579999999999995,1.409167292883099,-0.06189209729581489,9.531948526885815
9.59,0.7589907244613534,-0.052329618692714956,9.5261573848171
9.599999999999996,-0.11764467510526301,-0.10316635494137241,9.518645422148518
9.609999999999985,-0.9947969689959643,-0.09905695370544788,9.557636033618653
9.619999999999992,-1.7049252693172352,-0.11930868476920913,9.540556857907326
9.629999999999999,-1.6569838410456845,-0.11880232183805073,9.595371209821657
9.640000000000002,-0.8312287792631865,-0.0944280927552157,9.538126162790412
9.650000000000002,0.14628390227688975,-0.06983309846617128,9.499157813225512
9.659999999999997,0.8854893086231451,-0.07896312742979059,9.522080911022655
9.669999999999995,1.3877305992153701,-0.05360122752757239,9.50619972901178
9.679999999999998,1.559972337539928,-0.0509863156175162,9.5384969429718
9.690000000000001,1.6205643092855613,-0.041023872415481076,9.501007169263918
9.700000000000003,1.5414163993461978,-0.06057685786095401,9.528198114537446
9.709999999999999,1.1538760832560422,-0.04093330571201756,9.5196922605274
9.720000000000004,0.27267816424917346,-0.08251771567897516,9.526375474795673
9.730000000000004,-0.5613224805288847,-0.07209149361542111,9.538123962632312
9.739999999999997,-1.457974823187737,-0.12344263946326443,9.541587718514576
9.749999999999995,-1.768149780136911,-0.11877469580456704,9.555748825872476
9.759999999999998,-1.3744143437778191,-0.10170772791400352,9.546099557425398
9.769999999999992,-0.409460363035304,-0.08926197192799012,9.528953446158175
9.780000000000001,0.45191103202708083,-0.05877883587687459,9.529798684806622
9.79,1.1184482505805744,-0.07849111522197984,9.533404876588387
9.799999999999995,1.4888915973622925,-0.03444609539224548,9.508466670156682
9.810000000000006,1.578010098695247,-0.04956477005123883,9.513649921713428
9.820000000000004,1.6166989579292537,-0.03141181779224993,9.489199866027157
9.830000000000002,1.4170764232982684,-0.062107254562205734,9.527547801726653
9.84,0.710524927552609,-0.05952784727887509,9.522971195896949
9.850000000000001,-0.13361355433510677,-0.08658867910527528,9.534093486554045
9.859999999999996,-1.0602221515475179,-0.12185250769100273,9.539069630218377
9.870000000000003,-1.6902632932753818,-0.1259328312320431,9.549305333828695
9.879999999999994,-1.6941965751721588,-0.14041324568740748,9.555786150334333
9.889999999999999,-0.8876407287957693,-0.08120198462659499,9.546717927657173
9.900000000000002,0.07973880586931349,-0.06552734511134294,9.519303195521582
9.910000000000004,0.8387481053061555,-0.07472122364083768,9.53820638963139
9.919999999999996,1.364726934416731,-0.05641680636903614,9.517275497035438
9.929999999999998,1.5701305978533184,-0.04701726726109813,9.51242142645758
9.939999999999998,1.639948175385261,-0.0411779307552305,9.50396932581269
9.949999999999998,1.5365532279172482,-0.05160944358089591,9.537321814798185
9.959999999999994,1.1566836558189086,-0.050189833993770236,9.517716603532051
9.970000000000006,0.3184146088608555,-0.07799186070617188,9.5240157109106
9.979999999999993,-0.5168899341655178,-0.08333085478935282,9.550924651127698
9.989999999999997,-1.3750276675017343,-0.12812661349116697,9.54920428407348
9.999999999999995,-1.7723262415274184,-0.12774028458394043,9.572823005460126
10.009999999999993,-1.4477924383332188,-0.1102951644656042,9.54277159566859
10.019999999999992,-0.4579777377823333,-0.07392827390035883,9.562396916057477
10.029999999999998,0.4095507941755475,-0.07585249874983385,9.512837082181354
10.039999999999994,1.0973855563576973,-0.07052762785270499,9.54071359244326
10.049999999999997,1.475826711742208,-0.054224165606664446,9.494496221179014
10.059999999999999,1.6199286406245073,-0.05050408066817408,9.525610024637098
10.069999999999995,1.6047743428979588,-0.0485120052818176,9.521092184286077
10.079999999999995,1.357476014338508,-0.045958300845805995,9.546139977591253
10.089999999999995,0.6336971977934961,-0.05981387330001245,9.515067529182808
10.099999999999998,-0.2383436840610494,-0.11530101995172963,9.55181166654245
10.10999999999999,-1.1280190387227016,-0.09722151513129448,9.524535380560435
10.119999999999996,-1.7693180569117262,-0.13141013362955134,9.56720989787378
10.129999999999994,-1.6418664585635447,-0.10827459825118413,9.57503154543729
10.139999999999999,-0.8130482780246294,-0.08151564838815281,9.516116999758326
10.149999999999997,0.19936915124780819,-0.07084764146925446,9.539177464393912
10.15999999999999,0.9036957333585183,-0.05849796529592628,9.4848732341986
10.169999999999996,1.394469089837237,-0.06657544738589279,9.511644291140785
10.180000000000001,1.58419838731655,-0.04281297755365515,9.52265552739
10.19,1.6106003623492948,-0.04499942865491987,9.508221725576734
10.200000000000001,1.4895309785616404,-0.04378135865624262,9.52358083399003
10.21,1.0433231062981327,-0.05646063746769389,9.526232034652743
10.219999999999999,0.14073326416846152,-0.08124955661428207,9.497806059549704
10.229999999999999,-0.8108986303812429,-0.10939961579893823,9.555494950173678
10.239999999999993,-1.5815833929512713,-0.12133330463631692,9.532804005268966
10.24999999999999,-1.7819932638289835,-0.14124644410350345,9.593293356665574
10.259999999999993,-1.1344852670653975,-0.07167787185428548,9.532419225742387
10.269999999999998,-0.11325183462974461,-0.07470213243677278,9.527713615073244
10.27999999999999,0.6722189597306654,-0.07075818730103682,9.538846300697069
10.289999999999997,1.2492125215145287,-0.0592440567023021,9.522842458959952
10.299999999999997,1.517571748895886,-0.05135311481882338,9.525849339380507
10.309999999999997,1.6374438682029815,-0.04500098121757307,9.497256340393621
10.319999999999999,1.5629830658043113,-0.045775265186594485,9.526614133003397
10.329999999999998,1.3069399929270977,-0.054152079835312644,9.53093541342554
10.339999999999995,0.5459864659781035,-0.07741608667690224,9.515920136587757
10.349999999999996,-0.28847332305060447,-0.08104179867081465,9.499658067468749
10.359999999999985,-1.208201146874601,-0.11649565514209824,9.538059481601062
10.36999999999999,-1.7340298460298063,-0.11803432839840489,9.546144408173866
10.379999999999999,-1.6017914447013368,-0.12257384227830256,9.58831278761402
10.389999999999997,-0.7124067703861391,-0.06359194052432961,9.517064222107733
10.399999999999995,0.2183016764531506,-0.08644419742473518,9.530167401853753
10.410000000000002,0.9220854225912347,-0.07471796772449621,9.531195572122328
10.420000000000003,1.3834948853570692,-0.057001453926544834,9.52158080096467
10.43,1.60048183132855,-0.048521267693490445,9.531847030543666
10.439999999999998,1.6225017216904036,-0.04280054845583711,9.497801455301062
10.450000000000005,1.5291219855258293,-0.05288504268031871,9.530605136135229
10.459999999999997,1.057125506639271,-0.046087485682202556,9.521825330926122
10.469999999999999,0.13766883980207867,-0.08787060901161645,9.485610637406268
10.48,-0.759433346881331,-0.09659318628905315,9.557101008385997
10.489999999999993,-1.5685661630255336,-0.12448410132934543,9.547284451408414
10.5,-1.804979614884934,-0.12496405921037385,9.571117713444652
10.509999999999998,-1.257873630269569,-0.08105189817364386,9.546952187977153
10.519999999999994,-0.10802899759913807,-0.06317137248397771,9.513155393241965
10.529999999999996,0.739006802178355,-0.06374696514027224,9.530043303223666
10.540000000000004,1.3003008002470324,-0.05791944849284506,9.51625858322349
10.55,1.5496010155891309,-0.045997117734538545,9.501953233998968
10.559999999999995,1.6505167585826168,-0.05151771552006118,9.511194667448228
10.569999999999995,1.5813614391497413,-0.04711594871697637,9.502145943381235
10.579999999999991,1.2781278551056134,-0.05117288249865848,9.550094607348056
10.589999999999995,0.49534891444103113,-0.06270224134478344,9.488117405304452
10.600000000000003,-0.38209003063115865,-0.1064285795756814,9.557535053363441
10.609999999999992,-1.2425947330325977,-0.11170451002956416,9.548675523693417
10.619999999999996,-1.789989097449338,-0.13813447375245458,9.574187366084793
10.629999999999997,-1.5583991633077832,-0.09706152267558406,9.543133497123515
10.639999999999999,-0.6123049147067223,-0.0728533325057413,9.530240694213388
10.65,0.3192767937169483,-0.07906983330516303,9.547187456643748
10.659999999999998,0.9852801163745282,-0.06859627473255603,9.531103748481955
10.669999999999991,1.414640689113222,-0.05414861294287028,9.518695953080261
10.679999999999998,1.5840890856016976,-0.04555067961992736,9.505751153836828
10.689999999999998,1.622881956403423,-0.0446999286118009,9.511019928591564
10.699999999999996,1.4932475120510058,-0.040578932988308905,9.52153404846267
10.710000000000006,1.0367046647895564,-0.059919061018953126,9.550111540135802
10.719999999999994,0.17982477079215667,-0.07372939923958802,9.493852244521928
10.72999999999999,-0.7785596050269631,-0.1173294202169156,9.556472603551049
10.739999999999997,-1.6167520078357682,-0.10886050437380965,9.53942781149816
10.75,-1.8448863598504721,-0.13391484830869985,9.553743688329503
10.759999999999994,-1.1480670515257148,-0.10198728354422418,9.545160167685667
10.76999999999999,0.005264450249023575,-0.061007783098908155,9.529603730988859
10.779999999999994,0.7520522671336689,-0.052719625240419773,9.518758779541036
10.789999999999988,1.3533359729253793,-0.05791756341643555,9.51942890448864
10.799999999999994,1.5766587862320778,-0.047511408893957996,9.510099695998749
10.810000000000002,1.6472225102361142,-0.05916726983512439,9.51585257628252
10.81999999999999,1.5340854982943133,-0.03461564321602347,9.510993101392227
10.829999999999995,1.2321585789215568,-0.04932439532890675,9.539057320367762
10.839999999999995,0.48561336318968035,-0.06338824790274827,9.50780217243038
10.849999999999993,-0.37356817739731973,-0.10392244555166243,9.534104191288087
10.859999999999996,-1.2801450797632454,-0.09609313960818436,9.549886337432248
10.869999999999996,-1.7841189608005588,-0.14915398312380315,9.568106618996017
10.879999999999997,-1.5396128475901285,-0.08506628114031757,9.546788708222023
10.889999999999993,-0.5926167938362645,-0.10019583123953973,9.549069934597
10.899999999999993,0.41420965773392404,-0.07108636253441229,9.515921848164997
10.909999999999993,1.0822848866816412,-0.06850055669717776,9.529589645226503
10.91999999999999,1.5089114537281054,-0.02407207944274574,9.52361198145165
10.929999999999996,1.591190579122988,-0.06302595249789344,9.526019544563326
10.93999999999999,1.625148254154441,-0.028570082389911978,9.505401895197059
10.949999999999989,1.4338972895721842,-0.06490264501696912,9.537179654951638
10.959999999999997,0.7804048968137055,-0.05797091138184271,9.52609758670829
10.969999999999999,-0.10003995988706839,-0.09191835103764727,9.504810825488015
10.979999999999993,-0.9999801950405716,-0.10385879919186455,9.559904988008645
10.99,-1.7112385647970934,-0.1314644898751843,9.533042977281573
11.000000000000004,-1.7231095059760209,-0.11626395915066967,9.576301623305534
11.01,-0.970625614885601,-0.07219356742307746,9.543944975494728
11.019999999999994,0.06702366313612959,-0.07566822984802146,9.535541978418262
11.029999999999987,0.8252456090720195,-0.05611378539581347,9.51021090405816
11.039999999999994,1.3285910233905596,-0.0643992739734279,9.514654154850794
11.05,1.5838960037828889,-0.02967387952041824,9.531712752619558
11.059999999999999,1.6275365828790744,-0.045297258195092616,9.506804877143953
11.07,1.5358277036415786,-0.03831707187334422,9.530906771760176
11.079999999999995,1.1459202712030476,-0.05127288385493109,9.522927814358443
11.090000000000002,0.32776671359800164,-0.06470145189036076,9.514912815095336
11.099999999999996,-0.566501903419266,-0.09432723329652387,9.53179004693197
11.109999999999996,-1.4683758784530483,-0.1108016623375865,9.528909977670562
11.12,-1.6383926947387673,-0.11519045403007716,9.574223813409443
11.129999999999997,-1.056411321582365,-0.08823415238516089,9.547028706378992
11.140000000000002,-0.04336388141680474,-0.07006602277502491,9.525546699008295
11.149999999999997,0.7217636178333215,-0.07393355377587152,9.538637758947399
11.160000000000004,1.1935544161832865,-0.055078753074490276,9.508994402624769
11.170000000000005,1.2174495951531927,-0.050338414527530365,9.51755358987923
11.179999999999993,1.0766125734440266,-0.05305323595198059,9.505684807540879
11.19,0.8377990605097226,-0.0483527057196974,9.528164788521066
11.199999999999996,0.692939364122317,-0.04965986344810186,9.547905693582964
11.21,0.33910199088093435,-0.06514458938231547,9.505594259296869
11.219999999999995,-0.055828757382379586,-0.08595141958298305,9.54252628732626
11.229999999999995,-0.4738646577177855,-0.10267593379824463,9.536880332175508
11.239999999999993,-0.6288186262296506,-0.10411010164018222,9.561390617653617
11.249999999999995,-0.37765117113451596,-0.06982453371434719,9.533964264856243
11.259999999999996,0.052671195711974324,-0.07412847051623682,9.55003428197716
11.269999999999996,0.3953287623706264,-0.0605086683932349,9.514020854542096
11.280000000000001,0.5981363503675468,-0.06689790929584982,9.525527642671753
11.290000000000001,0.6134524116583389,-0.07339373435734776,9.5248511843131
11.3,0.5128097483267104,-0.07114927148916364,9.52603137985151
11.309999999999995,0.2865374127191826,-0.07738600498005166,9.560132128967496
11.319999999999995,0.20442343571535043,-0.050796055084191584,9.524410910547315
11.329999999999995,0.16657323743586805,-0.07581086503306905,9.543403871974148
11.339999999999996,0.22071416712390104,-0.08064213885534739,9.532018812530639
11.349999999999994,0.22322350892730164,-0.07063250085034044,9.531920753161021
11.359999999999989,0.2437031753404254,-0.06687407837877285,9.542803139074726
11.369999999999997,0.22615464178779807,-0.06367054045904624,9.516998712370118
11.379999999999995,0.21582124850426007,-0.06900582153595362,9.52700112731911
11.389999999999995,0.23127361380815847,-0.06064434106547279,9.525937073075154
11.399999999999997,0.21326670212775503,-0.08507912711703271,9.529575212811395
