Time (s),Acceleration x (m/s^2),Acceleration y (m/s^2),Acceleration z (m/s^2)
0,0.036270864,0.114850417,9.567611731
0.01,0.00966028,0.126082487,9.711396886
0.02,0.016813745,0.120940145,9.750750824
0.03,0.049080209,0.173617169,9.691054975
0.04,0.027677646,0.131279265,9.665717293
0.05,0.005613746,0.132293583,9.734334725
0.06,0.023953401,0.144165918,9.721884404
0.07,0.022655308,0.132271958,9.708013403
0.08,-0.030366901,0.137983434,9.673070649
0.09,0.015877306,0.117896821,9.727631846
0.1,0.018637754,0.101009479,9.706768167
0.11,0.017075365,0.152638798,9.68891098
0.12,0.008431678,0.121835127,9.649000957
0.13,0.01419548,0.108403959,9.72669663
0.14,0.042836581,0.117626817,9.69787383
0.15,0.009548245,0.155343174,9.676067475
0.16,0.00506397,0.136110173,9.636937016
0.17,0.04489194,0.156044749,9.746723921
0.18,0.032753266,0.090424289,9.696644216
0.19,0.005758164,0.168443857,9.644826796
0.2,0.024600416,0.103310609,9.665085021
0.21,0.047558002,0.11286841,9.724806519
0.22,-0.001523509,0.131614292,9.745186339
0.23,0.008488732,0.13266659,9.663307496
0.24,0.034967274,0.143038123,9.722920443
0.25,0.043414762,0.096919051,9.72170328
0.26,0.00168174,0.137734977,9.735854164
0.27,0.019436144,0.124621567,9.681956219
0.28,-0.018304092,0.130131854,9.687156468
0.29,0.028666908,0.102943033,9.728760919
0.3,0.01064826,0.141326411,9.678452467
0.31,-0.016558717,0.124891944,9.690225792
0.32,0.02738455,0.102291901,9.698880637
0.33,0.024534341,0.150412686,9.75442289
0.34,0.0107036,0.148159552,9.702676614
0.35,0.01058082,0.135158031,9.675191287
0.36,0.048749823,0.116372783,9.668655584
0.37,0.037488289,0.111519544,9.737801333
0.38,-0.008381793,0.15371525,9.695163833
0.39,0.016499139,0.138948799,9.661873582
0.4,0.017275336,0.143614734,9.71430829
0.41,0.022619134,0.116606694,9.699363178
0.42,-0.010368581,0.139143396,9.677035318
0.43,0.014038792,0.126970758,9.682704908
0.44,0.001196366,0.117084409,9.733225311
0.45,0.031069386,0.113412753,9.728163302
0.46,-1.24E-06,0.134180148,9.658857354
0.47,0.034080649,0.099560464,9.701653258
0.48,0.003980123,0.124573779,9.705378
0.49,0.045721209,0.154573555,9.705999508
0.5,0.025505555,0.116260598,9.630020812
0.51,0.033260735,0.126743862,9.687850623
0.52,0.031135437,0.089847578,9.702547602
0.53,0.003301529,0.175552637,9.734216841
0.54,-0.006332684,0.153100018,9.66325245
0.55,-0.001495839,0.125343115,9.688444822
0.56,0.016909171,0.147128076,9.751344232
0.57,0.000226982,0.153191185,9.716074826
0.58,-0.006805414,0.12837617,9.688622379
0.59,0.026307737,0.124307746,9.736630707
0.6,0.013188871,0.121534216,9.748101839
0.61,0.02150426,0.1248397,9.699407092
0.62,-0.014802394,0.136299039,9.663110843
0.63,0.028675542,0.116385085,9.747846323
0.64,0.012260298,0.114810463,9.683955402
0.65,0.005940847,0.126328667,9.683175279
0.66,0.017688237,0.122086765,9.674627936
0.67,0.02586642,0.105759901,9.707500638
0.68,0.019588987,0.129093718,9.703869576
0.69,0.014038699,0.159996618,9.684256923
0.7,0.016608147,0.11159503,9.668052575
0.71,0.004568691,0.121830817,9.722564067
0.72,0.022245665,0.146255534,9.717590305
0.73,0.017375955,0.134758458,9.663931358
0.74,-0.018825152,0.149126407,9.68405235
0.75,0.031311447,0.137699063,9.74631481
0.76,0.004548322,0.107967555,9.741580302
0.77,0.00577748,0.155545487,9.665677368
0.78,-0.003359899,0.143372566,9.73002014
0.79,0.030728254,0.121535748,9.743939431
0.8,0.017933096,0.134686398,9.718024234
0.81,0.017419763,0.112907717,9.65878797
0.82,0.015859136,0.084803446,9.695264053
0.83,0.019085568,0.071358484,9.754233705
0.84,0.049837937,0.117343859,9.69764467
0.85,0.008806635,0.093089912,9.65883664
0.86,0.005860745,0.114105685,9.692345902
0.87,0.03354606,0.121947875,9.750622813
0.88,0.017867563,0.121855272,9.669641791
0.89,-0.007375015,0.164775014,9.665817024
0.9,0.020668323,0.123133435,9.72231683
0.91,0.026295334,0.14428608,9.729706212
0.92,-0.002723005,0.107429063,9.69255691
0.93,0.013679732,0.132045487,9.649747382
0.94,-0.014168446,0.103197113,9.729498949
0.95,0.025745523,0.131190579,9.719222165
0.96,0.003415987,0.138230143,9.712334078
0.97,0.032972796,0.11790396,9.663093218
0.98,0.000445352,0.116482276,9.748917402
0.99,0.03178539,0.116002198,9.693822325
1,-0.001768345,0.122779258,9.672749667
1.01,0.017589832,0.10788938,9.671234201
1.02,0.044576521,0.119503888,9.699931787
1.03,0.035381421,0.127023547,9.750875575
1.04,0.01730632,0.107658059,9.644418103
1.05,0.002361354,0.124894429,9.669607529
1.06,0.024592848,0.123896068,9.716358967
1.07,0.034418531,0.153484424,9.741341566
1.08,0.009126746,0.151901277,9.648937781
1.09,0.019173747,0.144014124,9.717839669
1.1,0.006763667,0.112943511,9.734694101
1.11,0.038331286,0.154478152,9.680910821
1.12,-0.00849866,0.128529127,9.69126146
1.13,0.011247121,0.12364754,9.698357699
1.14,-0.006925982,0.123754618,9.743110794
1.15,0.023848722,0.131059266,9.691655712
1.16,-0.00667894,0.142394279,9.667606276
1.17,0.018347852,0.10396608,9.699977037
1.18,0.004888821,0.147824357,9.766986259
1.19,-0.001107283,0.147524532,9.693557381
1.2,0.00276246,0.128401921,9.657013375
1.21,0.021109062,0.128306093,9.697890047
1.22,0.014589909,0.106359857,9.714691224
1.23,0.004437181,0.134780595,9.696345872
1.24,0.016046103,0.1034281,9.624367243
1.25,-0.017110824,0.129182557,9.754332252
1.26,0.009208466,0.162363935,9.742788967
1.27,0.024967723,0.143852427,9.690657026
1.28,0.027218827,0.115858664,9.654911661
1.29,0.026127794,0.128778372,9.707581498
1.3,0.010112961,0.119941956,9.753394929
1.31,0.011740745,0.127247385,9.668556137
1.32,-0.023751772,0.104602416,9.702292553
1.33,0.046472156,0.116015135,9.712333908
1.34,0.008736366,0.134827748,9.699072999
1.35,0.038344051,0.137092449,9.634045351
1.36,-0.016173963,0.129265047,9.719614192
1.37,0.019209768,0.11720977,9.756073746
1.38,0.036442894,0.124705636,9.670688829
1.39,0.027268699,0.125272586,9.691713212
1.4,0.01333377,0.127723208,9.667998169
1.41,0.019015902,0.123836866,9.779446025
1.42,0.012049106,0.1306161,9.676670583
1.43,0.007976959,0.14873645,9.64928802
1.44,-0.012896092,0.119083171,9.685134939
1.45,0.011598822,0.133410766,9.772055117
1.46,-0.0221416,0.116408859,9.697657168
1.47,0.016183584,0.143492028,9.646168732
1.48,0.008680991,0.08439343,9.730085715
1.49,0.003733589,0.134315811,9.733478666
1.5,0.002236877,0.134835267,9.687060589
1.51,0.034613278,0.149952142,9.660955809
1.52,0.008396838,0.09988035,9.721696629
1.53,0.03523101,0.10333353,9.703774844
1.54,0.009715602,0.114791841,9.675079716
1.55,0.020170736,0.099665566,9.663886864
1.56,0.027975927,0.123479643,9.736314356
1.57,0.021349239,0.115226927,9.762232279
1.58,-0.007937787,0.12051279,9.642578347
1.59,0.021296647,0.134614379,9.68684276
1.6,0.012408094,0.108977626,9.675388247
1.61,0.027690275,0.161696479,9.729715363
1.62,0.00555503,0.115169434,9.657684611
1.63,-0.007564922,0.13456287,9.729183053
1.64,0.020832713,0.110164344,9.750502353
1.65,0.014311847,0.145062761,9.745491239
1.66,0.001893243,0.135050956,9.649639734
1.67,0.002464612,0.137127724,9.707831804
1.68,0.023744777,0.101888257,9.744757196
1.69,0.037171859,0.110996837,9.697025211
1.7,-0.008407501,0.141699345,9.67331128
1.71,0.035260469,0.145006701,9.700085522
1.72,0.019247286,0.121384429,9.757494517
1.73,0.025018629,0.145530339,9.687611128
1.74,0.012625465,0.144877534,9.652885063
1.75,0.028730458,0.122878837,9.725050228
1.76,0.035168067,0.13941767,9.707325922
1.77,0.046906303,0.159480914,9.661704443
1.78,0.015490719,0.117332591,9.649730775
1.79,-0.017322106,0.140909421,9.737212442
1.8,0.044000271,0.136271277,9.74515309
1.81,0.012371396,0.155337336,9.686111006
1.82,0.021352534,0.148069877,9.667073863
1.83,-0.0018509,0.158585569,9.748631951
1.84,0.016828242,0.124843997,9.746127323
1.85,-0.001228699,0.155563563,9.689742683
1.86,0.03141004,0.131073736,9.724004554
1.87,-0.001316292,0.133104873,9.753169075
1.88,-0.008015992,0.153884226,9.730716458
1.89,0.02655821,0.151290245,9.674339472
1.9,0.00914053,0.12784522,9.67176225
1.91,0.031375931,0.122693875,9.71372355
1.92,0.023529401,0.107461002,9.680550954
1.93,0.022072438,0.135685366,9.677402535
1.94,0.019245506,0.117196363,9.68234099
1.95,0.033310837,0.100279723,9.744364502
1.96,0.022642271,0.130097457,9.696218298
1.97,-0.001112031,0.112287197,9.658063648
1.98,0.017764885,0.132381727,9.651856427
1.99,0.012565326,0.134425976,9.742749198
2,0.023018166,0.143142806,9.702604538
2.01,-0.021354748,0.157529308,9.689939521
2.02,0.009579578,0.114497451,9.713004628
2.03,0.014083738,0.143248051,9.763670644
2.04,-0.00955129,0.140944702,9.705957541
2.05,-0.021450057,0.143372695,9.650946977
2.06,-0.013536642,0.116646886,9.710122802
2.07,0.059167246,0.11517112,9.725398276
2.08,0.01911703,0.136724643,9.699484735
2.09,0.030237758,0.115417475,9.649246096
2.1,0.002367266,0.126922995,9.68246056
2.11,0.052849207,0.119106389,9.723018403
2.12,-0.018716068,0.163702944,9.633939797
2.13,0.016691304,0.115679526,9.689385677
2.14,0.033715718,0.128222257,9.725527125
2.15,0.034855008,0.12610376,9.723331312
2.16,0.018375638,0.142186874,9.632198421
2.17,0.003913553,0.146224523,9.700618259
2.18,0.031726078,0.090422478,9.721777471
2.19,-0.007141099,0.125380442,9.728849913
2.2,0.02970836,0.134773657,9.654995914
2.21,-0.001651924,0.10890231,9.681800454
2.22,0.014507745,0.109839017,9.710015029
2.23,0.034771674,0.129049216,9.674013194
2.24,0.041830465,0.134340763,9.63995279
2.25,0.019031022,0.086720987,9.683645975
2.26,0.019999378,0.110123143,9.733712346
2.27,0.032453135,0.120629471,9.684248017
2.28,-0.001828637,0.16196296,9.656549491
2.29,0.029918571,0.135891581,9.691353622
2.3,0.031770217,0.120107999,9.717860496
2.31,0.020756482,0.138202804,9.658590312
2.32,0.023751974,0.134795452,9.641550336
2.33,0.001070289,0.141325323,9.732026354
2.34,0.026634213,0.14798471,9.725840309
2.35,-0.001672989,0.119379883,9.684428638
2.36,-0.010484041,0.114675193,9.649993271
2.37,0.0162431,0.14714336,9.760124456
2.38,0.033161354,0.122054262,9.725076144
2.39,0.032497193,0.135606061,9.65349045
2.4,0.019364621,0.107379526,9.69152748
2.41,0.022181537,0.145218749,9.735284925
2.42,-0.013190885,0.139614856,9.743049172
2.43,0.008839526,0.165565704,9.636991175
2.44,-0.007959607,0.135180213,9.669152348
2.45,0.011891237,0.137933759,9.719634309
2.46,0.006310831,0.143383319,9.702513149
2.47,0.025881295,0.13027402,9.656797708
2.48,0.002448022,0.110830121,9.692981914
2.49,0.033680496,0.128296005,9.737087478
2.5,0.008041632,0.130416715,9.688028944
2.51,-0.005468715,0.152178279,9.669283141
2.52,0.032841269,0.121211716,9.642831769
2.53,0.039731726,0.151049469,9.752070919
2.54,-0.001761997,0.091997631,9.681310341
2.55,0.015125472,0.159121364,9.628244757
2.56,-0.004766111,0.09559327,9.675019347
2.57,0.008510315,0.12755591,9.776848081
2.58,-0.000922645,0.1217817,9.719438321
2.59,0.014414841,0.157116881,9.671556709
2.6,0.012938867,0.119242426,9.709060843
2.61,0.046470644,0.115299037,9.724878952
2.62,0.038321497,0.134969128,9.723857802
2.63,0.02507254,0.157517471,9.625196809
2.64,0.038973989,0.1119149,9.713469695
2.65,0.03133476,0.114651352,9.72114306
2.66,-0.006179663,0.166608224,9.676572549
2.67,0.007474185,0.134326642,9.667193401
2.68,0.018525146,0.136885126,9.687225629
2.69,-0.015261235,0.103641379,9.74454632
2.7,-0.003959415,0.133416316,9.682747729
2.71,-0.032734122,0.137767933,9.699154732
2.72,0.024627966,0.140495501,9.716280871
2.73,-0.010375437,0.170575825,9.743792319
2.74,-0.002007566,0.129988567,9.683287281
2.75,-0.017515537,0.153582162,9.699287074
2.76,0.024229555,0.085401517,9.745701025
2.77,0.036866651,0.11691786,9.717548797
2.78,0.015720505,0.14748836,9.686718484
2.79,0.005118072,0.120148155,9.687507318
2.8,0.020909369,0.109832868,9.755347579
2.81,0.011982076,0.142697172,9.712658497
2.82,0.002424174,0.123396459,9.674810852
2.83,0.017506713,0.120962507,9.685068732
2.84,0.007453737,0.109748976,9.744798674
2.85,0.03658914,0.145584617,9.682117767
2.86,-0.002750094,0.119627075,9.634321654
2.87,0.017344281,0.114196669,9.740155771
2.88,0.022979328,0.117530303,9.702251255
2.89,7.05E-05,0.153206756,9.733932808
2.9,-0.00549806,0.163801247,9.657843566
2.91,0.020860712,0.126766275,9.719282793
2.92,0.032097718,0.09728436,9.719405776
2.93,0.024243866,0.152976467,9.695272873
2.94,0.018316349,0.121255352,9.666184052
2.95,0.052140804,0.117120227,9.711093566
2.96,0.032188694,0.108155031,9.743186633
2.97,0.030908388,0.130861586,9.685166071
2.98,-0.006575819,0.12265376,9.668236203
2.99,0.028966572,0.105742707,9.693860196
3,0.013742657,0.136500059,9.733521968
3.01,0.028256837,0.124839154,9.631566253
3.02,0.007938747,0.110558042,9.694754334
3.03,0.00846778,0.146834928,9.767577847
3.04,0.005686207,0.156861674,9.715111536
3.05,0.002948053,0.117423076,9.692553127
3.06,0.010542281,0.121112808,9.661177163
3.07,0.008960471,0.14231341,9.767335862
3.08,0.024194353,0.119337729,9.691230845
3.09,0.014356118,0.142276186,9.678721998
3.1,0.02930923,0.119986245,9.702693097
3.11,0.014368776,0.114066665,9.770599501
3.12,0.020060955,0.117158196,9.649734626
3.13,0.000699548,0.151967384,9.672643779
3.14,-0.003219625,0.116408985,9.726849652
3.15,0.059208588,0.142113636,9.695021429
3.16,0.01262674,0.146443526,9.679096573
3.17,0.006331777,0.146106279,9.6179022
3.18,0.021612009,0.131389682,9.671641748
3.19,0.041476265,0.124117864,9.730439417
3.2,0.005395795,0.157065999,9.674030084
3.21,0.04230812,0.155358974,9.656756792
3.22,0.008448551,0.134488607,9.693080852
3.23,0.014534944,0.117689915,9.714989952
3.24,0.000348991,0.128888956,9.651212308
3.25,0.013790238,0.122043237,9.657141771
3.26,0.007256783,0.087688912,9.726127883
3.27,0.016424391,0.126669605,9.761256626
3.28,0.018700589,0.116408259,9.663729663
3.29,0.020215469,0.137019143,9.714253628
3.3,0.017201226,0.157143244,9.681524276
3.31,0.020478865,0.119334542,9.723386769
3.32,-0.012792674,0.125913949,9.681106234
3.33,0.038335247,0.117296654,9.662461189
3.34,0.011044731,0.10439054,9.698306727
3.35,0.035780927,0.130658656,9.724358395
3.36,0.00230888,0.138219981,9.667876029
3.37,0.015580864,0.150443128,9.664511839
3.38,0.011809908,0.107330461,9.757116451
3.39,0.022557047,0.122356596,9.678366919
3.4,0.008147269,0.14313605,9.649871698
3.41,0.008221,0.109842815,9.720654479
3.42,-0.00857368,0.143305577,9.740505861
3.43,0.020816811,0.151914843,9.723373531
3.44,-0.010998517,0.121209589,9.653089571
3.45,0.019003408,0.117244645,9.743623073
3.46,0.036554867,0.122209758,9.71423116
3.47,0.006915811,0.135451137,9.705234061
3.48,0.024640683,0.105537512,9.637793405
3.49,0.007615314,0.145715039,9.737201297
3.5,0.038567767,0.085558563,9.763022976
3.51,0.016002381,0.16943665,9.621190898
3.52,-0.008899852,0.141487646,9.658327752
3.53,0.022081751,0.130963949,9.698279173
3.54,0.006089723,0.134134638,9.735743863
3.55,0.009639383,0.154372529,9.651976869
3.56,0.007259997,0.130253914,9.691192319
3.57,0.004536346,0.129638634,9.741382732
3.58,0.021053259,0.123354967,9.723810595
3.59,0.006942179,0.142530464,9.728598636
3.6,-0.016541906,0.155966731,9.668918761
3.61,0.032760858,0.123103761,9.775287036
3.62,0.008520288,0.117718655,9.732246076
3.63,0.009670522,0.110805676,9.695327286
3.64,-0.008492244,0.136452597,9.677854409
3.65,0.005745483,0.098618575,9.741408728
3.66,0.012395333,0.132276143,9.692291076
3.67,0.006220361,0.122230538,9.709520626
3.68,0.006752767,0.111605673,9.673875287
3.69,0.031267964,0.133385681,9.716754555
3.7,0.000930657,0.117875101,9.7160739
3.71,0.013590794,0.17077483,9.670943983
3.72,0.026463464,0.105689718,9.693175203
3.73,0.045629524,0.103689373,9.723320084
3.74,0.005207032,0.113168801,9.748797955
3.75,0.001676647,0.163010412,9.626171059
3.76,-0.004172874,0.141798257,9.725328229
3.77,0.020416798,0.138135798,9.750384752
3.78,0.022333838,0.131270501,9.66399429
3.79,0.019522078,0.137922897,9.681509914
3.8,0.042916402,0.115368593,9.695459937
3.81,0.008263712,0.120807423,9.757547809
3.82,0.033255209,0.147292202,9.673190864
3.83,0.013092343,0.114665514,9.704657664
3.84,0.030343731,0.110366781,9.726409561
3.85,0.046014784,0.104489005,9.719723795
3.86,0.026289978,0.120570621,9.687477461
3.87,0.006105538,0.130068934,9.705613248
3.88,0.01441201,0.091878725,9.757891822
3.89,0.041236266,0.14184716,9.723564129
3.9,-0.013703574,0.164846015,9.692550106
3.91,0.014432491,0.142873346,9.679212564
3.92,-0.01667215,0.134404051,9.721584223
3.93,0.021614518,0.115405205,9.731141604
3.94,0.011322081,0.140858591,9.67916113
3.95,0.003223638,0.080387462,9.696458651
3.96,0.006887862,0.108666758,9.755822666
3.97,0.022172778,0.112985235,9.729881556
3.98,-0.022419394,0.152150705,9.65276634
3.99,-0.003586619,0.111712802,9.713258005
4,0.015384845,0.120991209,9.753974739
4.01,0.001410285,0.11360489,9.730943531
4.02,0.025427826,0.126704707,9.657331775
4.03,0.029796187,0.14862703,9.709502136
4.04,0.035224537,0.101808972,9.682076858
4.05,0.019863361,0.166947979,9.70848882
4.06,0.001447068,0.113305014,9.635524791
4.07,0.015932419,0.128379001,9.69670275
4.08,-0.000453781,0.14179323,9.734171579
4.09,0.027196576,0.16450835,9.679213125
4.1,-0.011488716,0.125045225,9.640426809
4.11,0.023340349,0.120823007,9.678364664
4.12,-0.000111224,0.105146486,9.755380891
4.13,0.002150891,0.132691183,9.699785056
4.14,0.002473325,0.160881932,9.669341454
4.15,0.030309094,0.094628657,9.705752213
4.16,-0.002732628,0.121538337,9.709443262
4.17,0.010614637,0.1279682,9.67684168
4.18,0.027473665,0.084615785,9.65496086
4.19,0.017051643,0.121028684,9.728043229
4.2,0.039186017,0.109518882,9.71023371
4.21,0.005314826,0.130360896,9.648257853
4.22,0.021616372,0.125200328,9.659548396
4.23,0.00939493,0.144099208,9.72245477
4.24,0.03584106,0.138824891,9.697576454
4.25,0.04063324,0.151970133,9.655614759
4.26,0.017407725,0.115555566,9.688050816
4.27,0.07559645,0.142335408,9.727625676
4.28,0.013163628,0.141049109,9.703367881
4.29,-0.013177851,0.140939204,9.6652673
4.3,0.001752821,0.113522442,9.688807349
4.31,0.018210157,0.141335362,9.780228586
4.32,-0.007486992,0.162503908,9.687802155
4.33,0.008509315,0.118473002,9.632069957
4.34,-0.008589403,0.131388858,9.713603813
4.35,0.040863349,0.123071702,9.768231043
4.36,0.012157076,0.152743931,9.642604636
4.37,-0.023525108,0.128707471,9.664873088
4.38,0.046324363,0.129582932,9.705077669
4.39,0.042012744,0.124460766,9.713140338
4.4,0.048065478,0.140751775,9.65533204
4.41,0.00161466,0.143572455,9.643712315
4.42,0.036831819,0.128981137,9.69405691
4.43,-1.41E-05,0.156729013,9.709575147
4.44,0.007062201,0.135724074,9.647518142
4.45,-0.004933944,0.135266732,9.651172056
4.46,-0.002674036,0.133989422,9.783113299
4.47,0.004300835,0.1547345,9.716220145
4.48,0.003768995,0.111139693,9.669610265
4.49,0.020108513,0.146546634,9.673401816
4.5,0.000572647,0.128575727,9.772114379
4.51,0.034069703,0.123900845,9.725440072
4.52,0.007045906,0.131208604,9.663676679
4.53,0.030961922,0.114632969,9.730165913
4.54,0.004501308,0.117671621,9.738031221
4.55,0.005295019,0.116315064,9.70306303
4.56,0.022592741,0.118644228,9.633391474
4.57,0.020769429,0.134458793,9.711251518
4.58,0.015594297,0.14196995,9.725418496
4.59,0.015947503,0.149052008,9.673062256
4.6,0.028780697,0.115355172,9.62943479
4.61,0.015132556,0.156298431,9.702772636
4.62,0.003062706,0.108404075,9.745397118
4.63,0.006913213,0.160777964,9.705917411
4.64,0.009998904,0.125520403,9.677251277
4.65,0.010327168,0.130157201,9.689377817
4.66,0.000710382,0.137882115,9.745929826
4.67,0.038855583,0.126405045,9.7012679
4.68,-0.02913145,0.137972109,9.690121385
4.69,0.014547406,0.112904424,9.731228361
4.7,-0.015746899,0.129465125,9.721130839
4.71,0.027554513,0.121156286,9.675222449
4.72,0.035374574,0.128445333,9.617422241
4.73,0.039172485,0.084720551,9.699698025
4.74,0.019707175,0.125190952,9.728024737
4.75,0.006709076,0.137393867,9.663969936
4.76,0.020663098,0.105653631,9.623908233
4.77,0.003035687,0.139689286,9.736013343
4.78,0.041322567,0.138438698,9.719572298
4.79,0.022969995,0.160196681,9.679783574
4.8,0.013921573,0.115755579,9.663544884
4.81,0.022939122,0.124549796,9.749641818
4.82,0.008751019,0.146600518,9.729155695
4.83,0.010230612,0.135628496,9.694670197
4.84,-0.012281769,0.121009584,9.680461715
4.85,-0.000371052,0.129556727,9.760725761
4.86,0.009382467,0.147239733,9.695755121
4.87,0.034003899,0.128114073,9.644983112
4.88,0.012953126,0.094376647,9.705598048
4.89,0.038017642,0.126368171,9.720398826
4.9,-0.004750693,0.100641601,9.672845333
4.91,0.015091347,0.120658715,9.662385948
4.92,-0.01362594,0.123638012,9.716745792
4.93,0.019491604,0.128487201,9.770179756
4.94,0.039042834,0.125649851,9.711191647
4.95,-0.009238738,0.137135354,9.644367683
4.96,0.025482797,0.110922259,9.708779879
4.97,0.008856612,0.152911563,9.772568757
4.98,0.002173382,0.128076971,9.673959106
4.99,-0.011565869,0.151709133,9.634344246
5,0.007236227,0.133766532,9.752254356
5.01,0.00946277,0.126448414,9.728955023
5.02,-0.007180925,0.121831451,9.699411419
5.03,0.013335602,0.14872933,9.655333657
5.04,0.001383166,0.095982461,9.73974746
5.05,0.024689522,0.107058087,9.725009648
5.06,0.004442484,0.122270904,9.708916067
5.07,0.006626816,0.115682868,9.679671477
5.08,0.000629629,0.124275403,9.722844298
5.09,0.006411395,0.153999272,9.760721385
5.1,0.015668821,0.146666688,9.645072356
5.11,0.00636417,0.097252354,9.679277125
5.12,0.020423325,0.094656608,9.70176296
5.13,0.013406736,0.124084081,9.724494982
5.14,-0.009318268,0.102786744,9.63420145
5.15,-0.003763839,0.146948754,9.75435832
5.16,0.007200029,0.114205025,9.711976993
5.17,0.024448087,0.120796119,9.72541206
5.18,-0.010660617,0.116064176,9.680484415
5.19,0.007786634,0.145141232,9.663526354
5.2,0.038089938,0.105266642,9.717465884
5.21,0.011688353,0.144025455,9.66615442
5.22,-0.026914402,0.143128657,9.664573872
5.23,0.0274752,0.123666586,9.703330835
5.24,0.01841327,0.136500926,9.74949703
5.25,0.003385541,0.142742003,9.667154357
5.26,-0.005717907,0.140984777,9.622671904
5.27,0.034822409,0.111944337,9.750768093
5.28,0.004868758,0.118411098,9.712112364
5.29,0.017284833,0.139720509,9.688174407
5.3,0.013727967,0.093235583,9.629329538
5.31,-0.007052865,0.141166338,9.750340843
5.32,0.015110402,0.154462912,9.709780359
5.33,-0.022828861,0.15856111,9.692371575
5.34,0.002516417,0.134609858,9.629936799
5.35,0.004419566,0.121202133,9.712477982
5.36,0.035030752,0.114629362,9.73522589
5.37,-0.001386686,0.132458257,9.664145045
5.38,0.008147971,0.127859344,9.689196611
5.39,0.030807503,0.104276773,9.727285289
5.4,-0.005816336,0.108684956,9.755203981
5.41,0.033485035,0.124384362,9.631208553
5.42,0.029823907,0.146984638,9.666575553
5.43,0.017352226,0.121324158,9.712710581
5.44,-0.002668747,0.118041705,9.704816537
5.45,0.017150437,0.151981303,9.641443864
5.46,0.008749029,0.139100798,9.666089183
5.47,0.002488929,0.119637392,9.75308225
5.48,0.01738008,0.139888835,9.71842698
5.49,-0.003836316,0.129952777,9.649585066
5.5,0.009892652,0.108377964,9.648827507
5.51,0.022293808,0.141775162,9.772640052
5.52,0.014677286,0.114658758,9.689847168
5.53,-0.012400045,0.140323715,9.685108794
5.54,0.007804153,0.101887056,9.709464928
5.55,0.01051851,0.124062318,9.741501797
5.56,0.013803167,0.160937268,9.693228654
5.57,-0.005431918,0.130922763,9.672952225
5.58,0.016331274,0.130157336,9.708004163
5.59,0.020786945,0.125640704,9.71634923
5.6,0.032920396,0.123409325,9.667385845
5.61,0.028720432,0.111698376,9.661075794
5.62,-0.017773433,0.1093291,9.696899184
5.63,0.031333611,0.099839397,9.737725503
5.64,0.013127514,0.141608423,9.649012571
5.65,0.006580058,0.140300392,9.657127127
5.66,0.020670761,0.136874782,9.702354966
5.67,-0.000196056,0.138932936,9.723351779
5.68,0.027120247,0.134092758,9.646524474
5.69,0.000534899,0.142648904,9.689658516
5.7,0.02773282,0.114426565,9.771665702
5.71,0.005791756,0.143776598,9.742311522
5.72,-0.012922279,0.113959255,9.6445175
5.73,-0.028359776,0.14259527,9.673005371
5.74,0.018248415,0.104672864,9.769747162
5.75,0.031645705,0.119848214,9.677491433
5.76,0.034021522,0.107655393,9.689338063
5.77,0.012559424,0.116815933,9.682294525
5.78,0.027804833,0.081574203,9.744364129
5.79,0.035359403,0.129900652,9.704204009
5.8,0.006300372,0.151362998,9.655294861
5.81,0.0287369,0.087479356,9.67349412
5.82,0.01501889,0.098504109,9.694776922
5.83,0.036671321,0.103581672,9.723452507
5.84,-0.002606626,0.138608899,9.623753369
5.85,-0.000574692,0.130133864,9.720933568
5.86,0.027357415,0.098526014,9.732853539
5.87,0.01727185,0.172163234,9.694689253
5.88,-0.016093755,0.127523395,9.652465651
5.89,0.017549848,0.114394924,9.734344776
5.9,0.048671024,0.115245939,9.69655622
5.91,0.004396385,0.139732865,9.66800995
5.92,0.004032814,0.098771917,9.668551833
5.93,0.024906681,0.128880505,9.716191665
5.94,0.018746078,0.104636285,9.763586257
5.95,0.044378541,0.179216604,9.657306829
5.96,0.008183476,0.133280253,9.659818298
5.97,0.039790539,0.10250553,9.714452589
5.98,0.025597376,0.118210108,9.717507713
5.99,0.040061554,0.119068275,9.671361268
6,0.01410982,0.154605254,9.699826466
6.01,0.001533778,0.155477311,9.772876503
6.02,0.016489014,0.134534518,9.6853015
6.03,0.00497446,0.183954277,9.665424557
6.04,0.005538246,0.138762664,9.67273633
6.05,0.011107039,0.130848256,9.755241886
6.06,0.031747562,0.119606934,9.701658511
6.07,0.010958876,0.137913659,9.689199702
6.08,-0.000628737,0.116720981,9.719070721
6.09,0.018617872,0.138999085,9.782360379
6.1,-0.001207708,0.115088004,9.71327409
6.11,0.013172758,0.148889329,9.644046124
6.12,0.005968117,0.096522627,9.682670976
6.13,0.027336509,0.119876776,9.71609001
6.14,0.023147555,0.154041916,9.697039454
6.15,0.054632889,0.12050683,9.655321964
6.16,0.014199727,0.146588616,9.70897872
6.17,0.033576572,0.138813849,9.726898887
6.18,0.001251427,0.152497986,9.682475443
6.19,0.01376814,0.132397732,9.653591671
6.2,0.002302853,0.137064473,9.711563646
6.21,0.011910647,0.137224306,9.76164957
6.22,0.016458055,0.132311264,9.6648389
6.23,0.000768077,0.130231083,9.684708918
6.24,0.017797255,0.089305456,9.72904945
6.25,0.020413718,0.160455688,9.729799803
6.26,0.000953186,0.13274083,9.66377953
6.27,0.007891581,0.124531805,9.673158656
6.28,0.035427355,0.08591657,9.724321455
6.29,0.011883545,0.11899095,9.704987506
6.3,0.006634928,0.143695318,9.675722206
6.31,0.02697799,0.144297932,9.658266703
6.32,0.020755486,0.100432916,9.739410122
6.33,0.027667726,0.132303171,9.718835227
6.34,-0.002759833,0.148870213,9.660624629
6.35,0.022568839,0.114519587,9.674995568
6.36,-0.01458488,0.116324578,9.736675597
6.37,0.039220623,0.139143486,9.717814596
6.38,-0.000449534,0.120205825,9.641372334
6.39,-0.003432911,0.121236497,9.72048124
6.4,0.001131892,0.118000131,9.72655189
6.41,0.015900566,0.130971768,9.736233561
6.42,-0.007522116,0.159552931,9.687928043
6.43,0.005681811,0.121374712,9.703263996
6.44,0.032205613,0.098308798,9.692710184
6.45,0.014051077,0.148658184,9.6860311
6.46,0.006337641,0.126299884,9.655945133
6.47,0.01018756,0.141359092,9.712547043
6.48,0.020060557,0.10510132,9.732069939
6.49,0.020961729,0.136636563,9.665739575
6.5,-0.015865619,0.128321736,9.678450883
6.51,0.023154123,0.158279718,9.722245461
6.52,0.019347862,0.140414168,9.711794029
6.53,0.03869746,0.157632044,9.618758495
6.54,0.017153166,0.128034278,9.672933723
6.55,0.020741849,0.123006595,9.735700857
6.56,0.020372541,0.154917948,9.722734465
6.57,0.001896746,0.147733265,9.669138078
6.58,0.005723865,0.105500309,9.675887065
6.59,0.032814534,0.155629363,9.757155476
6.6,0.054632432,0.128545684,9.70644575
6.61,0.00778768,0.15080645,9.675379194
6.62,0.019684268,0.09535858,9.66655285
6.63,-0.00363098,0.09340668,9.764926576
6.64,0.005945465,0.094829798,9.720812402
6.65,-0.025594485,0.15876676,9.665264256
6.66,0.032758993,0.104366458,9.661243125
6.67,0.039381349,0.138732942,9.723317568
6.68,0.042879225,0.096053204,9.673953328
6.69,0.016463706,0.139169191,9.637414236
6.7,-0.015966984,0.129565325,9.70434367
6.71,0.02614865,0.127344489,9.756455519
6.72,-0.029117394,0.150882327,9.695101809
6.73,0.011320301,0.142899803,9.662148842
6.74,0.014371931,0.128645003,9.697356331
6.75,0.03610542,0.11137156,9.738401519
6.76,0.012862753,0.139967704,9.693165273
6.77,0.009126037,0.135772559,9.68936986
6.78,0.007895017,0.113162332,9.707350099
6.79,0.035757825,0.147739816,9.770455957
6.8,0.024416346,0.143641684,9.651902842
6.81,0.009726594,0.119469433,9.672029069
6.82,0.011168853,0.136520167,9.70228065
6.83,0.003424683,0.152252692,9.727763676
6.84,0.005633175,0.140440249,9.659104713
6.85,0.041703292,0.132689715,9.63234451
6.86,-0.018690048,0.116390831,9.72513671
6.87,0.010481587,0.118385655,9.737192686
6.88,0.002198919,0.117264522,9.661900892
6.89,0.03604346,0.117554376,9.651531076
6.9,-0.01577316,0.151573165,9.742094051
6.91,0.05148754,0.118868577,9.728934652
6.92,0.012121343,0.123926178,9.665140095
6.93,-0.017774043,0.120413613,9.692050721
6.94,-0.001782524,0.116210043,9.763086029
6.95,0.021778447,0.14554272,9.751322625
6.96,0.00379992,0.121832696,9.657614618
6.97,0.002031943,0.12732287,9.704978591
6.98,0.025075384,0.098286992,9.700300733
6.99,0.004718532,0.144312423,9.671107794
7,-0.021364412,0.123889873,9.649997332
7.01,0.025489388,0.128957897,9.711882884
7.02,0.051204193,0.102882265,9.737909977
7.03,0.008809846,0.15257013,9.690193464
7.04,-0.006834902,0.175398114,9.645788539
7.05,0.026408688,0.133057127,9.686236584
7.06,-0.014965787,0.130709996,9.742533075
7.07,0.032545205,0.115025481,9.684818576
7.08,-0.001153958,0.134266923,9.674924171
7.09,-0.003854429,0.112422961,9.754834165
7.1,-0.013026974,0.122725814,9.755575971
7.11,0.031712411,0.139776637,9.700018092
7.12,-0.013148243,0.13710575,9.699706387
7.13,0.020767753,0.120169553,9.714004582
7.14,0.029221298,0.109672084,9.73798998
7.15,0.024066008,0.135490301,9.700395962
7.16,-0.002833208,0.133723027,9.65741757
7.17,0.035480027,0.126451341,9.671596403
7.18,0.020178845,0.099047926,9.701751159
7.19,0.002093552,0.140964253,9.685099721
7.2,-0.003084531,0.110484431,9.670869357
7.21,0.018714671,0.128099204,9.724515744
7.22,0.017420824,0.150021012,9.708936566
7.23,0.018448668,0.156211162,9.664511959
7.24,0.016786341,0.117523766,9.719841251
7.25,0.023944846,0.110916151,9.74531066
7.26,-0.002356872,0.121677597,9.706828936
7.27,0.007194038,0.143855219,9.664177236
7.28,0.008582533,0.121875735,9.668957845
7.29,0.02499417,0.105674907,9.703922419
7.3,0.02905606,0.118109026,9.659534722
7.31,0.016159425,0.131571704,9.691560533
7.32,0.020847128,0.124076731,9.649516733
7.33,0.038787862,0.118571829,9.782004109
7.34,0.00585574,0.12218675,9.661695672
7.35,0.024514432,0.152622314,9.679962332
7.36,-0.004454655,0.111847232,9.662735052
7.37,-0.004283798,0.135747136,9.748435055
7.38,0.029814541,0.131809534,9.689001953
7.39,0.005471155,0.137036707,9.648825656
7.4,0.006905148,0.088312527,9.712902215
7.41,0.0181674,0.108751164,9.764342134
7.42,0.004651563,0.112028458,9.702415242
7.43,0.002688391,0.143077178,9.646645405
7.44,0.005906977,0.116861157,9.760831565
7.45,0.020326069,0.124811356,9.733475672
7.46,-0.009538516,0.143653495,9.645913789
7.47,0.017632109,0.128868416,9.640794568
7.48,0.036797948,0.107369464,9.722628268
7.49,0.026011768,0.138765834,9.731347392
7.5,0.036777304,0.104645222,9.678979627
7.51,0.050639484,0.156181337,9.687318878
7.52,-0.003721853,0.137556433,9.690098527
7.53,0.015550213,0.158119492,9.758219266
7.54,0.033716584,0.152243792,9.640954991
7.55,0.02027485,0.132197786,9.675426898
7.56,-0.008419008,0.129501475,9.73256592
7.57,0.029990083,0.135736052,9.729457485
7.58,0.008480041,0.143506438,9.649748912
7.59,0.002174426,0.140007357,9.673304208
7.6,0.009479269,0.161012839,9.765818995
7.61,0.013231989,0.1611467,9.728795939
7.62,-0.001477817,0.127296476,9.672872067
7.63,0.055700167,0.117766126,9.732140946
7.64,0.021089411,0.144924278,9.740022643
7.65,0.035685543,0.103125832,9.681200982
7.66,0.005487704,0.143611196,9.654051691
7.67,0.030611661,0.114353661,9.728058292
7.68,0.004498379,0.119893154,9.712009808
7.69,0.030515992,0.147117297,9.712562525
7.7,-0.011426273,0.147313631,9.643741397
7.71,0.028262475,0.093492843,9.665190019
7.72,0.028274655,0.127257681,9.693419464
7.73,-0.027256374,0.134939074,9.698654531
7.74,0.009849107,0.13120332,9.631183754
7.75,0.03375614,0.156973056,9.709067293
7.76,0.024214666,0.098560756,9.722685869
7.77,0.013136133,0.120797831,9.674359349
7.78,0.013048241,0.118730394,9.663874478
7.79,0.033241642,0.120855601,9.735445412
7.8,0.024729173,0.107760674,9.73346441
7.81,0.007011351,0.123346551,9.638043436
7.82,-0.020100209,0.10020477,9.692425224
7.83,0.031897523,0.124491593,9.708458864
7.84,0.024484275,0.092125335,9.737513851
7.85,0.026652709,0.110938005,9.68156394
7.86,0.008800328,0.135005462,9.667503716
7.87,0.018770081,0.105747763,9.727627662
7.88,0.018738943,0.148784466,9.669603877
7.89,0.006931064,0.14223534,9.679932479
7.9,-0.003839217,0.134949324,9.668079427
7.91,-0.010900779,0.139392115,9.769528157
7.92,0.026710658,0.142837867,9.684042668
7.93,-0.010981112,0.155554034,9.672126809
7.94,0.016420704,0.121374396,9.73379524
7.95,0.011929671,0.156959502,9.74270783
7.96,0.027544332,0.125208141,9.707933807
7.97,-0.003614424,0.148607832,9.658992107
7.98,0.039791683,0.124607314,9.696688789
7.99,0.041272379,0.097911841,9.705446593
8,0.027567269,0.124677421,9.696234328
8.01,0.016088136,0.109566244,9.616926354
8.02,0.037721898,0.091713506,9.707236808
8.03,0.058072773,0.128713044,9.722408442
8.04,0.041768732,0.125982786,9.694000943
8.05,0.006967501,0.116209852,9.654727033
8.06,-0.001712633,0.132779856,9.713150648
8.07,0.023209171,0.132090947,9.731509052
8.08,0.020665152,0.108650598,9.66615306
8.09,0.001822799,0.14235553,9.685391169
8.1,0.004244038,0.102698669,9.722768617
8.11,-0.004192255,0.136012155,9.733762779
8.12,0.010699832,0.153031796,9.677591715
8.13,0.008727821,0.146704451,9.712449881
8.14,0.032752029,0.118620687,9.752399922
8.15,0.005004411,0.138746806,9.761564369
8.16,0.029932349,0.109051797,9.646031443
8.17,0.035967338,0.113521193,9.680984869
8.18,0.030044922,0.141962186,9.746057602
8.19,0.015333254,0.131824878,9.70499938
8.2,0.013212014,0.125625274,9.697209187
8.21,0.027225583,0.112793688,9.661097802
8.22,0.008917112,0.118539529,9.755241557
8.23,0.004517806,0.147177142,9.707375497
8.24,0.020297403,0.129528574,9.658302579
8.25,0.007061828,0.128372461,9.668618133
8.26,0.011796945,0.110049778,9.720152063
8.27,-0.02194225,0.138779231,9.720462467
8.28,0.000151249,0.138292665,9.641636247
8.29,-0.001911397,0.118090104,9.723569791
8.3,0.031632237,0.122694375,9.733004353
8.31,0.00241904,0.135844184,9.70822791
8.32,0.028041736,0.12529851,9.658875691
8.33,0.020655349,0.128378366,9.738506051
8.34,0.028854385,0.127310327,9.72699033
8.35,0.033319355,0.147543554,9.701488111
8.36,0.009061397,0.103710113,9.672880651
8.37,0.018269452,0.128840429,9.700544232
8.38,0.042118487,0.157365233,9.749813909
8.39,0.030505664,0.147453563,9.655189879
8.4,-0.009364113,0.150594349,9.643726239
8.41,0.026958304,0.118515568,9.720653155
8.42,0.010716939,0.133240576,9.734453545
8.43,0.003470813,0.141195178,9.68146527
8.44,-7.90E-06,0.147819801,9.652065947
8.45,-1.05E-05,0.129096808,9.726510411
8.46,0.02215946,0.143577517,9.766169572
8.47,0.019452017,0.13963108,9.728052492
8.48,0.039502406,0.124899018,9.678666237
8.49,0.02184938,0.10546896,9.761742856
8.5,0.007181076,0.1440823,9.70760966
8.51,-0.000729329,0.150627377,9.695784943
8.52,0.021923187,0.126211724,9.677241625
8.53,0.044396742,0.166939594,9.716495562
8.54,0.010041732,0.152096694,9.712191031
8.55,0.03840247,0.111727954,9.613094913
8.56,0.024036712,0.111211862,9.685897786
8.57,0.009401054,0.115579337,9.745730237
8.58,-0.018353198,0.151635851,9.700821958
8.59,0.022998388,0.125725905,9.668734302
8.6,-0.00632253,0.134554487,9.710203061
8.61,0.015976501,0.134046395,9.727229152
8.62,0.00978462,0.133151744,9.692433219
8.63,0.021910985,0.138170926,9.663267602
8.64,0.006913149,0.141480471,9.685331666
8.65,0.053467018,0.114299462,9.75571564
8.66,0.010930023,0.102748224,9.64071607
8.67,0.003468796,0.127677235,9.67736393
8.68,0.005762169,0.108151591,9.718151999
8.69,0.006640368,0.124126595,9.780504977
8.7,0.054441997,0.135484007,9.63487377
8.71,0.003772396,0.145431853,9.670164507
8.72,0.016633266,0.127980489,9.730798776
8.73,0.025542444,0.157187622,9.737327865
8.74,0.032445493,0.095963693,9.680932061
8.75,0.019333719,0.108818135,9.642679598
8.76,0.019690188,0.106683126,9.757042647
8.77,0.025251243,0.137888867,9.682337537
8.78,0.011109636,0.147585895,9.660788001
8.79,-0.003321327,0.13613857,9.661976248
8.8,-0.004207905,0.126824664,9.734853324
8.81,0.05433189,0.122046205,9.733884944
8.82,-0.008716218,0.134057882,9.699960446
8.83,0.021711509,0.138760316,9.742281211
8.84,0.042728293,0.147800346,9.742379481
8.85,0.016273615,0.139018067,9.744331161
8.86,-0.018667238,0.143212378,9.686044351
8.87,-0.01198867,0.122868828,9.709750727
8.88,0.015908106,0.101660722,9.704829251
8.89,0.014320245,0.142357149,9.691388582
8.9,0.03551182,0.128463295,9.672821569
8.91,-0.014598407,0.133427534,9.681797766
8.92,0.025814442,0.124959465,9.724533868
8.93,0.023355789,0.166323186,9.691319141
8.94,-0.020974733,0.150399669,9.641943275
8.95,0.020210679,0.117927598,9.704311124
8.96,0.002267281,0.117754281,9.732606496
8.97,0.021052065,0.145078782,9.632951793
8.98,0.024684087,0.139775204,9.680824547
8.99,0.010107174,0.123027328,9.741339698
9,0.009271521,0.130419718,9.747303354
9.01,0.022370892,0.15551086,9.651926723
9.02,-0.000721456,0.153708419,9.669059077
9.03,0.007399127,0.124937072,9.752275322
9.04,0.031952056,0.110452829,9.686514768
9.05,0.007655723,0.171279109,9.718795579
9.06,0.041023222,0.11871909,9.643297428
9.07,0.012523303,0.072968184,9.759239202
9.08,0.024835904,0.116071137,9.703468891
9.09,0.015424443,0.13333493,9.67492613
9.1,0.016095483,0.130257033,9.625876323
9.11,0.023389596,0.140830219,9.745213264
9.12,0.040641653,0.109022917,9.696260898
9.13,0.002185934,0.148579377,9.656596749
9.14,0.003670784,0.132909668,9.673008222
9.15,0.01378108,0.127961143,9.726634958
9.16,0.015664554,0.12918234,9.717756456
9.17,-0.001600704,0.156026228,9.63287383
9.18,0.006962738,0.132812134,9.692265123
9.19,0.028967858,0.144777552,9.751064316
9.2,0.007386182,0.144769311,9.74698354
9.21,-0.007955447,0.070976308,9.682970655
9.22,0.02878655,0.109631107,9.703869584
9.23,0.034784588,0.126170255,9.76605814
9.24,0.048427166,0.12384473,9.680556915
9.25,0.019976577,0.117024499,9.682392368
9.26,0.04676254,0.102708832,9.69963167
9.27,0.024208997,0.103079291,9.729038604
9.28,0.022843177,0.121908308,9.666729389
9.29,0.024583892,0.151096017,9.678883398
9.3,0.032879667,0.096829329,9.664797302
9.31,0.028779711,0.115302802,9.733455877
9.32,-0.018983343,0.140442683,9.685968171
9.33,0.007911036,0.136961957,9.678134694
9.34,0.012546353,0.125366621,9.725383243
9.35,0.010315002,0.148954241,9.778294862
9.36,0.008351641,0.123570726,9.675869012
9.37,0.031020937,0.111955874,9.687184458
9.38,0.000958657,0.126659477,9.710018872
9.39,0.018792227,0.121679338,9.747184685
9.4,0.00267963,0.126529189,9.648404551
9.41,0.009677496,0.103868737,9.736492267
9.42,0.017696991,0.12385216,9.701627786
9.43,0.03471018,0.138946676,9.698550145
9.44,-0.009671415,0.135997202,9.647296872
9.45,0.015227144,0.13037694,9.69241116
9.46,0.02617339,0.1002647,9.699354093
9.47,0.010475226,0.139386907,9.730157
9.48,0.010681994,0.137978703,9.685409447
9.49,-0.010475893,0.133544172,9.675362202
9.5,0.00027015,0.137690123,9.760280834
9.51,-0.014966713,0.172376183,9.716910586
9.52,-0.008980775,0.119815655,9.649699833
9.53,0.011889087,0.142417688,9.685999109
9.54,0.00943807,0.099579361,9.779465558
9.55,0.022091927,0.120456461,9.684345887
9.56,0.00342586,0.117340783,9.65374467
9.57,0.02021829,0.096850113,9.702242699
9.58,0.01910201,0.13714032,9.74464949
9.59,0.025542782,0.131699299,9.659329087
9.6,0.004234894,0.120158388,9.626681277
9.61,0.021025518,0.113078132,9.689715406
9.62,0.039013195,0.126458657,9.724934726
9.63,0.009098826,0.12957397,9.66296584
9.64,0.000938857,0.103309667,9.619114776
9.65,0.002946432,0.123745871,9.743281817
9.66,0.031713368,0.135984773,9.750592337
9.67,0.010405046,0.146049,9.673603479
9.68,-0.005082327,0.134228324,9.657806494
9.69,0.012158463,0.119687694,9.703152972
9.7,0.032064459,0.102018528,9.721593527
9.71,0.019304947,0.11886427,9.670383531
9.72,0.01389068,0.116875502,9.684035936
9.73,0.025130997,0.108256276,9.740969539
9.74,0.002422817,0.138195149,9.724527768
9.75,0.029113166,0.135545285,9.655460071
9.76,-0.003028906,0.127358288,9.696974919
9.77,0.042119391,0.100641166,9.714618167
9.78,0.014285845,0.142367698,9.696014945
9.79,0.021177872,0.114441133,9.655358775
9.8,0.025498069,0.122445412,9.668847195
9.81,0.023164758,0.104778884,9.765469899
9.82,0.005508252,0.144201771,9.686335021
9.83,-0.018440463,0.149631568,9.668597351
9.84,-0.013955207,0.13833718,9.687689546
9.85,0.020183706,0.157916464,9.741647479
9.86,0.031713349,0.145258416,9.665277351
9.87,-0.011341013,0.157810124,9.671820548
9.88,0.016781909,0.102697842,9.721068925
9.89,0.01048516,0.112181115,9.763113446
9.9,0.022503404,0.121979277,9.684564991
9.91,-0.028791884,0.12880614,9.660384423
9.92,-0.005559959,0.119601701,9.736963368
9.93,0.04336719,0.093183313,9.71164595
9.94,0.020266971,0.154678483,9.692459241
9.95,-0.010486466,0.119432644,9.655533873
9.96,0.038211043,0.120745495,9.704257592
9.97,0.024557588,0.089235521,9.734935044
9.98,0.022228906,0.121052334,9.696829931
