Time (s),Acceleration x (m/s^2),Acceleration y (m/s^2),Acceleration z (m/s^2)
24.81,0.055533826,0.117604682,9.731105762
24.82,0.022107077,0.147857083,9.757435397
24.83,0.01142574,0.146517007,9.73568331
24.84,-0.010932541,0.174941109,9.648490324
24.85,0.039344534,0.14010616,9.699900117
24.86,0.009243554,0.12749435,9.724389618
24.87,0.05026166,0.142156782,9.707127989
24.88,0.012472908,0.128142465,9.616754334
24.89,0.043905809,0.157588431,9.744553253
24.9,0.003335784,0.13906339,9.733279585
24.91,0.047095261,0.160451353,9.717673662
24.92,-0.000818265,0.121284095,9.633785303
24.93,0.044124013,0.163458795,9.7332735
24.94,0.004171113,0.150807708,9.73001134
24.95,0.038246534,0.18985346,9.702141162
24.96,0.001597884,0.147018383,9.622954176
24.97,0.06117376,0.153740281,9.717444304
24.98,-0.01506992,0.134100293,9.721585904
24.99,0.03441013,0.16989129,9.670048764
25,-0.033863903,0.119388427,9.677646317
25.01,0.040923221,0.171692359,9.777361045
25.02,-0.009158984,0.168498163,9.699478442
25.03,0.040273717,0.168769754,9.72056033
25.04,-0.000370696,0.137107388,9.6608733
25.05,0.057937762,0.152502905,9.77918727
25.06,0.018199333,0.155768865,9.635882751
25.07,0.005922485,0.147822511,9.705905745
25.08,-0.000187239,0.144100052,9.651307063
25.09,0.024106829,0.142738286,9.73130565
25.1,0.019724328,0.150145401,9.675266405
25.11,0.039268296,0.159535865,9.658746919
25.12,0.011126004,0.128856768,9.66829924
25.13,0.058492971,0.141869058,9.731687397
25.14,-0.006671409,0.148320697,9.666347497
25.15,0.053663938,0.150844027,9.67924325
25.16,-0.014943357,0.134979175,9.702136036
25.17,0.054702499,0.174145414,9.760790354
25.18,-0.029227131,0.159337077,9.654682858
25.19,0.019784488,0.184173865,9.683260116
25.2,-0.013150598,0.126363227,9.703216199
25.21,0.098022074,0.205284119,9.797906415
25.22,0.152675044,0.149719487,9.64060315
25.23,0.301067135,0.149795648,9.719995831
25.24,0.23162783,0.146863017,9.731819278
25.25,0.1653196,0.167090308,9.745912353
25.26,0.00456979,0.139513225,9.626890898
25.27,-0.009119002,0.147392163,9.741013314
25.28,-0.034843947,0.146536917,9.70395732
25.29,0.037279666,0.182232316,9.722902924
25.3,0.011828307,0.148969134,9.585993199
25.31,-0.053218129,0.176751228,9.749528932
25.32,-0.197487519,0.134747032,9.706872939
25.33,-0.189950156,0.181813589,9.718619938
25.34,-0.214307353,0.112832913,9.647813772
25.35,-0.158906623,0.176344236,9.712033539
25.36,-0.228263186,0.148084109,9.714562326
25.37,-0.204118524,0.180705711,9.666656797
25.38,-0.350620076,0.15314154,9.66437176
25.39,-0.307814881,0.165088957,9.714855379
25.4,-0.293228387,0.142168446,9.711026652
25.41,-0.154056299,0.195896709,9.728894261
25.42,-0.16787349,0.145565882,9.644124418
25.43,-0.033055264,0.166889411,9.787162216
25.44,-0.082499679,0.128597711,9.695664393
25.45,-0.124129459,0.17470282,9.716474538
25.46,-0.153204515,0.130371619,9.629195234
25.47,-0.018218929,0.169986863,9.802688291
25.48,0.006115673,0.11121358,9.70358328
25.49,0.060794318,0.158773174,9.688197204
25.5,0.040707516,0.134957203,9.665075504
25.51,0.094341055,0.180052033,9.777282009
25.52,0.107625166,0.128551611,9.612685144
25.53,0.232053837,0.186406188,9.723436969
25.54,0.270720511,0.132822288,9.646909169
25.55,0.362877771,0.174282466,9.773109156
25.56,0.36061097,0.164035404,9.638600781
25.57,0.454413263,0.18229208,9.718182432
25.58,0.408066488,0.15061867,9.76378661
25.59,0.422756697,0.174562939,9.771428943
25.6,0.464957448,0.165098781,9.694553152
25.61,0.505050836,0.172840836,9.714686445
25.62,0.516652647,0.153761645,9.695996395
25.63,0.554891602,0.155670993,9.80509466
25.64,0.359310533,0.149185928,9.620441769
25.65,0.175706324,0.166148099,9.743365536
25.66,0.132335097,0.09579863,9.682300836
25.67,0.142044978,0.193905769,9.776609879
25.68,0.189098495,0.14086858,9.625261562
25.69,0.192044072,0.186849314,9.712809691
25.7,0.121568042,0.074454483,9.724973298
25.71,0.049331675,0.185958447,9.738734583
25.72,-0.061873996,0.144980505,9.673765422
25.73,-0.022598401,0.166620214,9.722727456
25.74,-0.152832673,0.097333236,9.691541403
25.75,-0.126793833,0.166328188,9.750411564
25.76,-0.366233091,0.134704328,9.630527995
25.77,-0.349064582,0.182970046,9.731915395
25.78,-0.544502682,0.141000183,9.692154822
25.79,-0.496616707,0.192115678,9.691525286
25.8,-0.604757689,0.143638208,9.578547765
25.81,-0.796625109,0.18268638,9.694067367
25.82,-0.937059986,0.117948239,9.658973128
25.83,-0.587034782,0.171330512,9.771179094
25.84,-0.562274656,0.094129955,9.621507414
25.85,-0.478120463,0.184196704,9.700798309
25.86,-0.448119609,0.125208009,9.69719252
25.87,-0.495105653,0.152899819,9.722248946
25.88,-0.576686607,0.135556135,9.6464898
25.89,-0.496472787,0.162730276,9.710805466
25.9,-0.455724565,0.142630481,9.734913154
25.91,-0.366591864,0.167698175,9.667016971
25.92,-0.287533746,0.14040854,9.688249757
25.93,-0.259342978,0.147049843,9.680341685
25.94,-0.176957071,0.162137444,9.71237553
25.95,-0.068736167,0.164837009,9.662513791
25.96,-0.090326604,0.135216069,9.671390863
25.97,0.047492459,0.128703628,9.707532249
25.98,0.117723422,0.141649965,9.708367242
25.99,0.242407059,0.128872152,9.644483214
26,0.465884438,0.164403818,9.711578262
26.01,0.610402036,0.154268338,9.742489838
26.02,0.463178179,0.179091804,9.708189749
26.03,0.599105969,0.190526505,9.730298969
26.04,0.719847103,0.178966739,9.695030028
26.05,0.795662966,0.166993074,9.742250192
26.06,0.839746213,0.139152531,9.749140372
26.07,0.910052448,0.24110766,9.749374823
26.08,0.937794474,0.124907409,9.685064817
26.09,1.101659917,0.179327276,9.824961701
26.1,1.183784871,0.127045665,9.73662708
26.11,0.888151308,0.162550245,9.668525982
26.12,0.593835611,0.131058668,9.692830694
26.13,0.592652349,0.144767822,9.774625791
26.14,0.477970669,0.161658802,9.679319871
26.15,0.505898158,0.15941767,9.704320099
26.16,0.457932982,0.161580709,9.720069083
26.17,0.486263967,0.132111067,9.748744126
26.18,0.289114296,0.176444694,9.659486327
26.19,0.169141436,0.128781132,9.686483602
26.2,-0.014480723,0.165177542,9.702869246
26.21,-0.112426392,0.158285129,9.730830513
26.22,-0.228791669,0.165731451,9.659867166
26.23,-0.441645195,0.147977734,9.69475405
26.24,-0.539691145,0.177602487,9.682832216
26.25,-0.657459048,0.169708654,9.745888412
26.26,-0.707314564,0.13273836,9.624100607
26.27,-0.809497931,0.149368754,9.637949528
26.28,-0.95356352,0.110751657,9.65619999
26.29,-1.0637932,0.166291052,9.686440839
26.3,-1.079368101,0.120528727,9.626272769
26.31,-1.201264492,0.15479379,9.697685026
26.32,-1.304694382,0.133916219,9.680091171
26.33,-0.862585074,0.212120848,9.736341732
26.34,-0.6210369,0.142534628,9.663787212
26.35,-0.587305956,0.139146153,9.710690863
26.36,-0.728890709,0.130558728,9.716425007
26.37,-0.704685158,0.160694494,9.677673589
26.38,-0.703087481,0.136097505,9.656836502
26.39,-0.540562749,0.153914886,9.690241606
26.4,-0.496935846,0.141009013,9.70601863
26.41,-0.421133045,0.167190162,9.674307606
26.42,-0.337589403,0.165112016,9.641373859
26.43,-0.22588658,0.155926549,9.746673589
26.44,-0.059319992,0.162802436,9.696573658
26.45,0.063956386,0.178829674,9.718236438
26.46,0.158890276,0.164214294,9.703612938
26.47,0.175658598,0.146235207,9.688379614
26.48,0.296882953,0.160918189,9.742689011
26.49,0.588591617,0.195867807,9.748306086
26.5,0.669713359,0.161321013,9.731347002
26.51,0.638853037,0.152910793,9.757495528
26.52,0.785106917,0.149683311,9.770723136
26.53,0.955284935,0.195905034,9.703493122
26.54,0.917033343,0.197962718,9.714412361
26.55,0.979688496,0.13999734,9.733893224
26.56,1.02445255,0.159567604,9.727268938
26.57,1.098555308,0.173935699,9.728398584
26.58,1.036756317,0.13575459,9.666653839
26.59,1.260012079,0.16033036,9.7305924
26.6,1.075393588,0.170528301,9.723692408
26.61,0.752233696,0.134563644,9.685950052
26.62,0.514801674,0.14438227,9.744267238
26.63,0.496942879,0.184791582,9.790040516
26.64,0.504174877,0.157938184,9.704267664
26.65,0.461680985,0.172183181,9.688942778
26.66,0.408366713,0.197537648,9.680612583
26.67,0.380791315,0.158299203,9.815659001
26.68,0.182388914,0.176667337,9.685249427
26.69,0.025218541,0.180519993,9.731272279
26.7,-0.099806415,0.107045378,9.700621487
26.71,-0.121172838,0.179850981,9.73619474
26.72,-0.263182851,0.16097988,9.68555845
26.73,-0.371077685,0.165834354,9.693139542
26.74,-0.609736928,0.137333063,9.671234347
26.75,-0.615982495,0.154746637,9.702566644
26.76,-0.727410558,0.12205016,9.667866479
26.77,-0.763760079,0.139333813,9.72061694
26.78,-0.925018823,0.097931562,9.662968238
26.79,-1.005303017,0.194438689,9.736996136
26.8,-1.06227651,0.089599243,9.622366501
26.81,-1.21316552,0.120769758,9.653625949
26.82,-1.248737232,0.151011709,9.728499489
26.83,-0.9530408,0.170401591,9.64122667
26.84,-0.596681378,0.162580893,9.686863475
26.85,-0.633697101,0.148562116,9.615929741
26.86,-0.715397074,0.135844804,9.707486823
26.87,-0.73377568,0.175604109,9.658402021
26.88,-0.688217125,0.170263033,9.64789954
26.89,-0.585713795,0.168949394,9.666681563
26.9,-0.528481483,0.127559041,9.714468714
26.91,-0.449159373,0.200185308,9.699105884
26.92,-0.350716946,0.153820703,9.666576879
26.93,-0.247217919,0.121663125,9.643804479
26.94,-0.05408926,0.140664573,9.770129698
26.95,0.093921863,0.151795998,9.70406061
26.96,0.117298614,0.174450323,9.708318243
26.97,0.186852585,0.123532391,9.728733792
26.98,0.327404684,0.145162166,9.738037525
26.99,0.607776875,0.169693491,9.723936776
27,0.721332999,0.154148587,9.681065527
27.01,0.585383722,0.169288296,9.758847663
27.02,0.774250877,0.151033697,9.668615887
27.03,0.905726135,0.177480661,9.725836033
27.04,0.88663711,0.162565266,9.672389389
27.05,0.959645535,0.147818447,9.762712955
27.06,1.111981973,0.128685813,9.736131106
27.07,1.097227848,0.181067172,9.740935825
27.08,1.108201122,0.166253884,9.698310121
27.09,1.205793908,0.16335211,9.733201061
27.1,1.006593376,0.166038838,9.723499074
27.11,0.691467081,0.17660052,9.70058206
27.12,0.483926293,0.147851815,9.707289257
27.13,0.542265039,0.147023228,9.796293796
27.14,0.505868411,0.154116685,9.74608046
27.15,0.476922131,0.173742995,9.708232501
27.16,0.360858989,0.165220129,9.727110403
27.17,0.334266528,0.147948566,9.756114019
27.18,0.162460209,0.171918921,9.725616426
27.19,0.114837086,0.135315796,9.696491318
27.2,-0.014366715,0.160537562,9.631795289
27.21,-0.155171332,0.137574871,9.773464942
27.22,-0.229646301,0.15321905,9.660085139
27.23,-0.412916771,0.150011622,9.674034221
27.24,-0.52584855,0.127428592,9.681082769
27.25,-0.617376067,0.181575593,9.793344748
27.26,-0.700485014,0.162221889,9.610628542
27.27,-0.77692446,0.162493002,9.693086033
27.28,-0.905057553,0.125830884,9.638993664
27.29,-0.967738251,0.191312838,9.731803879
27.3,-1.082489327,0.144549454,9.628935679
27.31,-1.137367138,0.185404898,9.697019554
27.32,-1.354420529,0.156571856,9.664380336
27.33,-0.926310254,0.178162234,9.681416425
27.34,-0.661847007,0.166452607,9.644380908
27.35,-0.562130465,0.139422639,9.632528999
27.36,-0.759076419,0.145086859,9.724201337
27.37,-0.725597396,0.158481605,9.692784443
27.38,-0.700661054,0.172118552,9.700480224
27.39,-0.570066977,0.131699615,9.690530038
27.4,-0.508791947,0.128726401,9.730888565
27.41,-0.436022453,0.17155946,9.67319654
27.42,-0.350777935,0.160280058,9.676930326
27.43,-0.232299898,0.133422906,9.70041826
27.44,-0.041887542,0.1605088,9.736658303
27.45,0.070922531,0.155474187,9.717652503
27.46,0.1574248,0.144701816,9.659367786
27.47,0.186436983,0.169366015,9.69704149
27.48,0.348031016,0.153692406,9.734055148
27.49,0.609570586,0.193110262,9.711992732
27.5,0.711008789,0.174908847,9.690981047
27.51,0.635110287,0.138638433,9.6965719
27.52,0.714689119,0.146799575,9.737523014
27.53,0.877433435,0.190696886,9.681109505
27.54,0.886489649,0.169132571,9.708918757
27.55,0.94153916,0.181938641,9.698242893
27.56,1.014994636,0.147801915,9.76229791
27.57,1.121010665,0.194630532,9.747249629
27.58,1.072680343,0.160459666,9.672411595
27.59,1.293127865,0.176509024,9.772338134
27.6,1.058977393,0.179843522,9.714526107
27.61,0.686670851,0.184628929,9.749013655
27.62,0.470764007,0.16062695,9.685767482
27.63,0.510672993,0.177693414,9.758661425
27.64,0.545170034,0.135386244,9.729648874
27.65,0.456475674,0.179396585,9.671942433
27.66,0.376774227,0.152167042,9.708026986
27.67,0.343002394,0.122394416,9.748899175
27.68,0.2668862,0.139649463,9.725878499
27.69,0.114033024,0.152706527,9.733447503
27.7,-0.030510634,0.127326883,9.652309172
27.71,-0.162090992,0.157816668,9.753759833
27.72,-0.236484545,0.158370296,9.656308577
27.73,-0.385192053,0.13721213,9.657611184
27.74,-0.576663851,0.187580749,9.71393394
27.75,-0.609530089,0.154608868,9.782515003
27.76,-0.713277792,0.183034372,9.714283615
27.77,-0.820832671,0.167963354,9.693535189
27.78,-0.899033516,0.146726733,9.64975967
27.79,-0.992058772,0.155814425,9.774110215
27.8,-1.018625283,0.174877227,9.673063328
27.81,-1.198866938,0.138804693,9.655837271
27.82,-1.332804687,0.121549099,9.696342126
27.83,-0.97219059,0.171000017,9.708389642
27.84,-0.698156965,0.120767709,9.617947374
27.85,-0.616686612,0.151834245,9.652286461
27.86,-0.741106219,0.115116008,9.683017955
27.87,-0.654670938,0.185008652,9.719758472
27.88,-0.682979719,0.115505128,9.652482992
27.89,-0.594635933,0.149826642,9.718376694
27.9,-0.511763091,0.10457905,9.678118705
27.91,-0.402876258,0.159022349,9.689565211
27.92,-0.354632672,0.141437088,9.67537668
27.93,-0.201196789,0.146208476,9.675673522
27.94,-0.093811183,0.154986395,9.73167409
27.95,0.090504118,0.188235291,9.719835183
27.96,0.105540839,0.164228949,9.676434938
27.97,0.180678813,0.148734576,9.709593072
27.98,0.336415492,0.151861992,9.715516168
27.99,0.57936484,0.18649581,9.707518412
28,0.705303446,0.138650787,9.667965697
28.01,0.626896334,0.143451596,9.773480684
28.02,0.73705333,0.126091023,9.688691566
28.03,0.877665534,0.196661961,9.714110691
28.04,0.890430803,0.192074896,9.671329372
28.05,0.925362897,0.156133058,9.744688624
28.06,0.986519048,0.140120163,9.762022118
28.07,1.077602212,0.177386958,9.738650102
28.08,1.116944667,0.12177272,9.711718878
28.09,1.284649915,0.144443521,9.755655033
28.1,1.107921741,0.138592816,9.735657443
28.11,0.728269785,0.176754813,9.687955571
28.12,0.447199271,0.130856394,9.72407797
28.13,0.531475286,0.163857773,9.804935766
28.14,0.498042424,0.131082692,9.727915644
28.15,0.468212817,0.122925463,9.655200712
28.16,0.387836061,0.186129207,9.689914691
28.17,0.386130579,0.157052002,9.748995064
28.18,0.223574692,0.156735333,9.708022411
28.19,0.071586843,0.164953001,9.716746407
28.2,-0.073501752,0.176570531,9.692296507
28.21,-0.12895384,0.157649975,9.797660783
28.22,-0.231531196,0.154536911,9.673419356
28.23,-0.415484683,0.152733462,9.738293673
28.24,-0.576069909,0.115275493,9.642716119
28.25,-0.605076231,0.167863379,9.757710305
28.26,-0.729801545,0.157139783,9.623270683
28.27,-0.779300119,0.154548828,9.71553469
28.28,-0.950864778,0.111340666,9.699646366
28.29,-1.027447492,0.183240732,9.748759558
28.3,-1.066434017,0.160788113,9.61745939
28.31,-1.150889289,0.126109027,9.639157826
28.32,-1.295070992,0.11133587,9.666844441
28.33,-0.929081249,0.171702638,9.688723222
28.34,-0.664623957,0.164952804,9.649011058
28.35,-0.605308626,0.131919722,9.657338832
28.36,-0.736302014,0.156925767,9.717395862
28.37,-0.659272489,0.179425177,9.720040853
28.38,-0.661561406,0.149267167,9.691399181
28.39,-0.5761752,0.147777006,9.63153434
28.4,-0.495954313,0.147248862,9.708863173
28.41,-0.414930349,0.170245076,9.720264917
28.42,-0.302339981,0.14014499,9.657284045
28.43,-0.190078458,0.164240584,9.675317831
28.44,-0.126717564,0.151761592,9.724772545
28.45,0.033611964,0.236892945,9.764774416
28.46,0.094280393,0.119780379,9.673620005
28.47,0.229286776,0.188423614,9.714030937
28.48,0.367442897,0.137609315,9.696414983
28.49,0.624355029,0.160315232,9.723550898
28.5,0.658998693,0.130102805,9.676425174
28.51,0.622303694,0.16013753,9.792884249
28.52,0.753320507,0.166397647,9.715507291
28.53,0.902078377,0.177865834,9.744517082
28.54,0.886029911,0.153353733,9.710210947
28.55,0.966810994,0.137112874,9.784109014
28.56,1.014615996,0.189938474,9.655349532
28.57,1.135650793,0.183616845,9.818053613
28.58,1.05679109,0.156611248,9.668633436
28.59,1.28220804,0.149903972,9.712752919
28.6,1.117921572,0.15027541,9.699143052
28.61,0.717831076,0.179027605,9.711003257
28.62,0.441068798,0.142401437,9.722878237
28.63,0.489858468,0.162898094,9.748436063
28.64,0.511704858,0.140495811,9.704520814
28.65,0.435993297,0.152218464,9.688744233
28.66,0.386472228,0.176642212,9.67564694
28.67,0.345430233,0.179892004,9.794857759
28.68,0.175842154,0.128428603,9.709236998
28.69,0.048064605,0.181123911,9.699402393
28.7,-0.045202753,0.176144663,9.69582688
28.71,-0.133007508,0.144179699,9.733981532
28.72,-0.269238143,0.175581186,9.663774084
28.73,-0.386995792,0.156992737,9.686140629
28.74,-0.547541387,0.119196072,9.6384031
28.75,-0.638469263,0.14757326,9.753340616
28.76,-0.726399203,0.145176285,9.660155692
28.77,-0.838171832,0.1538605,9.670626703
28.78,-0.966519898,0.089450565,9.635453827
28.79,-1.076660775,0.205683759,9.730310988
28.8,-1.082751904,0.093375249,9.613461678
28.81,-1.168469251,0.180091647,9.739210193
28.82,-1.28105182,0.0960334,9.620683123
28.83,-0.888901927,0.226089466,9.744794549
28.84,-0.666153351,0.131164428,9.622933569
28.85,-0.600106628,0.146610797,9.706513045
28.86,-0.770366677,0.151339206,9.671671407
28.87,-0.681563535,0.181572884,9.699566929
28.88,-0.74559317,0.168626744,9.673527457
28.89,-0.533323462,0.182570901,9.666773391
28.9,-0.564775157,0.130394069,9.696048083
28.91,-0.414752605,0.178398767,9.741617802
28.92,-0.382471761,0.139129998,9.676472901
28.93,-0.222679564,0.144004075,9.686580223
28.94,-0.074193104,0.107677425,9.75091366
28.95,0.052102751,0.185205647,9.727217063
28.96,0.123293526,0.161120825,9.638124459
28.97,0.202338082,0.164573146,9.724906458
28.98,0.363874922,0.13174727,9.704239394
28.99,0.67317607,0.195314304,9.722236436
29,0.700562655,0.14938111,9.68670662
29.01,0.657923829,0.175490808,9.743251952
29.02,0.815463662,0.152166272,9.701108745
29.03,0.889626856,0.190880387,9.712093438
29.04,0.908398526,0.148243274,9.712896803
29.05,0.961393449,0.153777754,9.763666121
29.06,1.001939408,0.157329965,9.722589823
29.07,1.093761071,0.165743528,9.735613896
29.08,1.045431263,0.146708181,9.651886546
29.09,1.284650516,0.182550461,9.743134978
29.1,1.058874279,0.15646604,9.769987534
29.11,0.741416712,0.180724851,9.744355105
29.12,0.394751212,0.147519712,9.667016742
29.13,0.49192796,0.160425456,9.81001136
29.14,0.478548588,0.158815474,9.710461827
29.15,0.439852676,0.125291607,9.707069093
29.16,0.348250956,0.192250561,9.667556615
29.17,0.369593997,0.159772254,9.804046308
29.18,0.206485611,0.114919609,9.709689272
29.19,0.100597115,0.175296284,9.712597379
29.2,-0.065807423,0.134242304,9.695577765
29.21,-0.17228117,0.157055298,9.780716379
29.22,-0.26818851,0.114327453,9.679122158
29.23,-0.376270952,0.156738835,9.702759573
29.24,-0.605482393,0.100401596,9.661490275
29.25,-0.602733722,0.140536575,9.777882289
29.26,-0.753077246,0.156319063,9.601272011
29.27,-0.776654798,0.15542656,9.726770673
29.28,-0.948728511,0.124742109,9.613954252
29.29,-1.0123868,0.164889131,9.742358822
29.3,-1.079488257,0.198530243,9.651092802
29.31,-1.210387145,0.201497722,9.750002488
29.32,-1.24919567,0.146091356,9.681140498
29.33,-0.944652409,0.213110396,9.735751552
29.34,-0.637807454,0.160339234,9.64248651
29.35,-0.603208702,0.163236691,9.701691513
29.36,-0.717493234,0.11879587,9.694651815
29.37,-0.720262116,0.196483682,9.709018986
29.38,-0.757722496,0.11329977,9.635391587
29.39,-0.621868429,0.167330489,9.680329222
29.4,-0.535254326,0.151609629,9.712319963
29.41,-0.423501892,0.200096812,9.698515924
29.42,-0.324056258,0.142098585,9.641208683
29.43,-0.156794926,0.132318644,9.717663755
29.44,-0.036664872,0.144266524,9.684552252
29.45,0.113280947,0.194509071,9.712958744
29.46,0.108107448,0.145344147,9.671720283
29.47,0.277283383,0.194244662,9.702586581
29.48,0.368398711,0.195316929,9.703064175
29.49,0.683377776,0.200716325,9.761493973
29.5,0.641533517,0.164725966,9.607587418
29.51,0.67225949,0.16897343,9.772570793
29.52,0.78696046,0.140909742,9.653475326
29.53,0.914292765,0.186655946,9.749541859
29.54,0.906608742,0.14936615,9.681187531
29.55,0.965466281,0.155073582,9.762162223
29.56,1.029860584,0.148871664,9.696800623
29.57,1.03852922,0.151763122,9.726380243
29.58,1.078478592,0.166839999,9.663319048
29.59,1.2937279,0.173026796,9.771210443
29.6,1.066503614,0.152256708,9.751377859
29.61,0.707610233,0.179596908,9.738704739
29.62,0.41689122,0.117800616,9.733323216
29.63,0.501546325,0.170184947,9.792705351
29.64,0.44489952,0.177925854,9.746148314
29.65,0.460996958,0.15174912,9.694888738
29.66,0.377401052,0.176063551,9.734166783
29.67,0.400490572,0.142103718,9.724638733
29.68,0.160563908,0.169989484,9.660777653
29.69,0.095431971,0.142024267,9.736486676
29.7,-0.150915343,0.127130735,9.665486151
29.71,-0.163904543,0.117912647,9.746139437
29.72,-0.288481174,0.116255029,9.679716566
29.73,-0.404561455,0.203672254,9.72828173
29.74,-0.585875157,0.11602055,9.6455233
29.75,-0.595714759,0.177336207,9.799931506
29.76,-0.754215556,0.122294677,9.598363706
29.77,-0.790129366,0.17715487,9.721412361
29.78,-0.966389571,0.096835383,9.636480039
29.79,-0.980545899,0.215589442,9.798305685
29.8,-1.125922117,0.128151735,9.633166576
29.81,-1.291824912,0.191869897,9.720438259
29.82,-1.302819604,0.140323862,9.646441108
29.83,-0.835804971,0.21166383,9.730444876
29.84,-0.656504471,0.1042066,9.652025939
29.85,-0.632308904,0.160216843,9.67650033
29.86,-0.7162302,0.116380072,9.722974435
29.87,-0.691953598,0.140333627,9.706867254
29.88,-0.725368613,0.132652001,9.625272578
29.89,-0.594795506,0.17193048,9.735109006
29.9,-0.452942326,0.175760049,9.720896611
29.91,-0.379089919,0.164494338,9.669218134
29.92,-0.314027386,0.167563234,9.68580897
29.93,-0.153688816,0.169270231,9.678202657
29.94,0.010318662,0.190100156,9.721948386
29.95,0.076826654,0.155104554,9.653438238
29.96,0.115969198,0.136001913,9.689358251
29.97,0.236821949,0.184909138,9.708441284
29.98,0.41921628,0.166799953,9.701634633
29.99,0.710572687,0.199636078,9.700502522
30,0.642297343,0.169715721,9.634700538
30.01,0.65541857,0.191734497,9.751679327
30.02,0.752900395,0.126589682,9.703332329
30.03,0.860876846,0.18615446,9.74428473
30.04,0.906834504,0.148907368,9.668317525
30.05,1.050111519,0.157071963,9.809936679
30.06,1.020506343,0.133513429,9.737965801
30.07,1.111746587,0.184901576,9.749727144
30.08,1.08786168,0.146165456,9.675742602
30.09,1.280577244,0.164627699,9.84739525
30.1,1.034092866,0.143072871,9.675469677
30.11,0.682486527,0.15612554,9.74297536
30.12,0.420412696,0.148637388,9.67843079
30.13,0.48014845,0.136507806,9.813856465
30.14,0.436270148,0.141080514,9.67249547
30.15,0.439655043,0.148305917,9.699072867
30.16,0.382508917,0.126495834,9.684918536
30.17,0.355431032,0.181399256,9.724499954
30.18,0.144113589,0.153918338,9.671303307
30.19,0.118923671,0.179237466,9.695210234
30.2,-0.089541681,0.115504033,9.672741364
30.21,-0.16453851,0.149162859,9.720506097
30.22,-0.318771193,0.176771784,9.648376622
30.23,-0.401782403,0.209491976,9.737780411
30.24,-0.597895244,0.167625199,9.6876107
30.25,-0.640602495,0.177093624,9.78167868
30.26,-0.778506199,0.173848908,9.647066936
30.27,-0.791788049,0.173640314,9.774917095
30.28,-0.938585284,0.153388471,9.671255942
30.29,-1.034176712,0.193031437,9.748887362
30.3,-1.162389664,0.111995133,9.572868707
30.31,-1.354446686,0.165469439,9.701408117
30.32,-1.264943417,0.077515888,9.635780008
30.33,-0.888741958,0.199338758,9.690158154
30.34,-0.627656006,0.092874322,9.658285353
30.35,-0.57726486,0.189436501,9.723745338
30.36,-0.6952844,0.090310788,9.713701318
30.37,-0.672869682,0.221656462,9.716416418
30.38,-0.709995976,0.161546944,9.630584947
30.39,-0.57645523,0.197302189,9.725169085
30.4,-0.481274983,0.111851773,9.689053775
30.41,-0.360872037,0.186521432,9.684606052
30.42,-0.354113807,0.176991853,9.666757233
30.43,-0.167199438,0.159139638,9.715846644
30.44,-0.047557862,0.154607517,9.729298872
30.45,0.085921481,0.16177119,9.655757992
30.46,0.137444629,0.142668132,9.660696707
30.47,0.235160972,0.178224339,9.717613566
30.48,0.40802305,0.147766152,9.711161068
30.49,0.701044731,0.18290571,9.701549099
30.5,0.668127428,0.13219487,9.680186376
30.51,0.672038456,0.184927163,9.797946762
30.52,0.78208344,0.122340284,9.745348605
30.53,0.887527151,0.189899761,9.705175057
30.54,0.922498588,0.164636572,9.737233512
30.55,1.010151158,0.169891367,9.754525511
30.56,1.079666945,0.153152841,9.773617285
30.57,1.123319583,0.172153582,9.726880486
30.58,1.166941968,0.141915425,9.768415107
30.59,1.30471212,0.175119875,9.732757199
30.6,0.99227194,0.143601674,9.698416038
30.61,0.671588013,0.173837793,9.710778916
30.62,0.431567699,0.119837276,9.698955523
30.63,0.493451638,0.153250365,9.755556342
30.64,0.429699285,0.13915851,9.681682886
30.65,0.444585165,0.146287881,9.684064916
30.66,0.402522193,0.151224199,9.737501285
30.67,0.359627564,0.203641499,9.754606826
30.68,0.189643714,0.1720883,9.664352466
30.69,0.065205193,0.182844089,9.734769476
30.7,-0.111334848,0.120427876,9.676317469
30.71,-0.171553832,0.177328115,9.798361112
30.72,-0.305981671,0.146495986,9.647372914
30.73,-0.39916914,0.179445968,9.76224449
30.74,-0.631687143,0.110030519,9.640061861
30.75,-0.620833963,0.212043845,9.779122109
30.76,-0.803235951,0.120658609,9.600714445
30.77,-0.816811388,0.17006628,9.763913642
30.78,-1.077375867,0.106896479,9.659300023
30.79,-0.993481628,0.171229248,9.746399586
30.8,-1.187952407,0.104676142,9.601700077
30.81,-1.34731582,0.168793318,9.724222162
30.82,-1.189643784,0.129935988,9.661839582
30.83,-0.8054404,0.159202274,9.664807701
30.84,-0.541212023,0.188742502,9.654244071
30.85,-0.597570618,0.148507229,9.656982067
30.86,-0.643396228,0.166635151,9.7391333
30.87,-0.716545183,0.171879937,9.663103071
30.88,-0.688840476,0.145987856,9.69675186
30.89,-0.570541129,0.157229016,9.67707219
30.9,-0.443826186,0.166321972,9.737510374
30.91,-0.427325104,0.154979431,9.728952093
30.92,-0.333831498,0.170899681,9.645523457
30.93,-0.191066008,0.159111825,9.731965061
30.94,-0.044157423,0.184931895,9.70128673
30.95,0.083554559,0.145547848,9.682032365
30.96,0.134080495,0.160548563,9.700448815
30.97,0.27860896,0.158945663,9.674737257
30.98,0.383375547,0.13596446,9.741492235
30.99,0.690170914,0.163140226,9.73005838
31,0.637190389,0.136612345,9.707414697
31.01,0.695145267,0.164643506,9.809204741
31.02,0.774026384,0.168833397,9.727662298
31.03,0.877547444,0.149154117,9.762121058
31.04,0.943481968,0.143973991,9.662975003
31.05,1.06458056,0.185814008,9.756556366
31.06,1.0762912,0.128306206,9.655593458
31.07,1.060688543,0.159225629,9.746339463
31.08,1.152078625,0.121215857,9.725656392
31.09,1.265553499,0.161444805,9.769654678
31.1,0.941112361,0.135813545,9.642510345
31.11,0.670534056,0.16770921,9.70725659
31.12,0.452734006,0.15784196,9.687159707
31.13,0.495025677,0.153041581,9.790314455
31.14,0.390301147,0.158831759,9.739326769
31.15,0.407952875,0.13828269,9.62500297
31.16,0.422277428,0.173827221,9.798095157
31.17,0.311855185,0.192297281,9.685697173
31.18,0.160078961,0.173500713,9.721934596
31.19,0.079638604,0.183606977,9.721132082
31.2,-0.127340406,0.179445044,9.757743228
31.21,-0.175405723,0.122476876,9.740491397
31.22,-0.280935829,0.155810797,9.669266618
31.23,-0.476215467,0.174274751,9.702116082
31.24,-0.58919101,0.107526877,9.691138063
31.25,-0.632750273,0.173795025,9.741365331
31.26,-0.72432999,0.112121837,9.615381512
31.27,-0.859465794,0.176103654,9.708659921
31.28,-0.989947217,0.095306928,9.642174468
31.29,-1.021806497,0.23345029,9.780995887
31.3,-1.112428446,0.097332526,9.618933706
31.31,-1.294276976,0.188048713,9.741494329
31.32,-1.168659193,0.115766274,9.638808706
31.33,-0.814521369,0.23471613,9.723669062
31.34,-0.631271629,0.154051588,9.650839625
31.35,-0.624977685,0.166183496,9.638608372
31.36,-0.708574758,0.142239372,9.710490708
31.37,-0.677507574,0.148049114,9.693025429
31.38,-0.717257488,0.17621738,9.659431721
31.39,-0.58844639,0.165158888,9.640258132
31.4,-0.523683373,0.174193979,9.733169107
31.41,-0.390826556,0.145821744,9.676425707
31.42,-0.300545311,0.183425293,9.703042094
31.43,-0.172042766,0.129845136,9.704964553
31.44,-0.039435875,0.174622466,9.709186243
31.45,0.043183645,0.180962549,9.682945222
31.46,0.187000309,0.151411937,9.672597279
31.47,0.268169702,0.147905266,9.663753482
31.48,0.435197168,0.14987501,9.697692502
31.49,0.727139023,0.19535437,9.69750198
31.5,0.674042496,0.127695469,9.684450917
31.51,0.637847796,0.153745282,9.725696212
31.52,0.831255163,0.122632526,9.75240577
31.53,0.859850289,0.17444832,9.693687483
31.54,0.898538537,0.12514296,9.614602658
31.55,1.013342665,0.171568365,9.734409535
31.56,1.082738385,0.135422142,9.641238433
31.57,1.099357198,0.157219782,9.672871016
31.58,1.10289608,0.118792674,9.685961903
31.59,1.232203272,0.161387179,9.786727463
31.6,0.970412852,0.148005313,9.725636791
31.61,0.683287689,0.184382192,9.745802072
31.62,0.421795272,0.148708331,9.673269514
31.63,0.471755185,0.165764158,9.812285103
31.64,0.435495383,0.131564531,9.648143322
31.65,0.426287411,0.164064806,9.720968863
31.66,0.408385329,0.157844906,9.663703051
31.67,0.341754162,0.164040558,9.791066796
31.68,0.157998392,0.133510859,9.685071598
31.69,0.040940307,0.186571292,9.691832365
31.7,-0.110642964,0.136492839,9.681962034
31.71,-0.18954886,0.142414038,9.751985581
31.72,-0.307250039,0.148623322,9.624868249
31.73,-0.403698916,0.148565731,9.68337604
31.74,-0.590774933,0.151328875,9.675500641
31.75,-0.622606943,0.143271636,9.707144244
31.76,-0.741707558,0.184156589,9.749355284
31.77,-0.797286204,0.180627913,9.741548757
31.78,-0.991915321,0.142288512,9.700514519
31.79,-1.066952369,0.197930568,9.792026702
31.8,-1.119334788,0.179964321,9.630157473
31.81,-1.2700867,0.20155277,9.736612137
31.82,-1.170751202,0.167571245,9.709917265
31.83,-0.878386751,0.175931025,9.732528954
31.84,-0.642027668,0.134771093,9.59754456
31.85,-0.614310733,0.158354638,9.644814347
31.86,-0.682212088,0.13747469,9.673119871
31.87,-0.753313346,0.186989721,9.734345746
31.88,-0.716973637,0.120993099,9.637667432
31.89,-0.556653546,0.16940302,9.63188249
31.9,-0.474743199,0.117878427,9.695048017
31.91,-0.364710874,0.186289467,9.684722146
31.92,-0.314954682,0.141739554,9.656399987
31.93,-0.146449722,0.15078493,9.661737197
31.94,-0.02196664,0.139867337,9.747010227
31.95,0.057532616,0.163750808,9.667907144
31.96,0.157992289,0.17889182,9.703973163
31.97,0.283838376,0.160377043,9.676594455
31.98,0.400981898,0.163983349,9.719307968
31.99,0.661254881,0.171757519,9.719896168
32,0.661916516,0.144913916,9.658326962
32.01,0.616640384,0.126593087,9.753175432
32.02,0.791153139,0.140241212,9.730239419
32.03,0.784703363,0.147023963,9.722625672
32.04,0.97712037,0.142381839,9.676598455
32.05,1.119927406,0.168776552,9.720214961
32.06,0.981372092,0.144488626,9.731067105
32.07,1.004645685,0.166958023,9.737046395
32.08,1.157102457,0.143443657,9.720141558
32.09,1.272715038,0.176211033,9.743552334
32.1,1.035308902,0.136264085,9.749534276
32.11,0.690837026,0.191184234,9.68731635
32.12,0.456280416,0.127004472,9.730513621
32.13,0.479462795,0.188281528,9.72177838
32.14,0.410421924,0.117344025,9.749071306
32.15,0.452194143,0.193808439,9.670750933
32.16,0.415556482,0.154047432,9.696084076
32.17,0.42517134,0.160121717,9.675144713
32.18,0.17312161,0.113579166,9.733906916
32.19,0.025905434,0.198789352,9.666772055
32.2,-0.115595338,0.161743579,9.71864868
32.21,-0.176954809,0.165974328,9.7630032
32.22,-0.272155519,0.157192209,9.669015636
32.23,-0.41400725,0.188834528,9.730172868
32.24,-0.586813884,0.161487195,9.66138368
32.25,-0.599721999,0.1889491,9.765796131
32.26,-0.683611365,0.140316033,9.674543472
32.27,-0.798912901,0.193574804,9.734648533
32.28,-0.999893245,0.124610559,9.658015167
32.29,-1.035108499,0.19306539,9.798692123
32.3,-1.121572294,0.114879215,9.655062664
32.31,-1.27824961,0.211525856,9.708702478
32.32,-1.265579693,0.108725645,9.615169761
32.33,-0.860561474,0.171121787,9.701532016
32.34,-0.648467275,0.148441702,9.684305174
32.35,-0.582268418,0.181514919,9.602849218
32.36,-0.687627621,0.132119325,9.680695894
32.37,-0.725185412,0.121837864,9.697751891
32.38,-0.72865819,0.180408546,9.711305766
32.39,-0.586003933,0.178928705,9.6722032
32.4,-0.469984343,0.156838019,9.703632662
32.41,-0.37879808,0.180919597,9.701991325
32.42,-0.301217581,0.177327409,9.695778239
32.43,-0.203170307,0.160861322,9.690997985
32.44,-0.041985431,0.168569548,9.698219584
32.45,0.042648807,0.170339194,9.737882316
32.46,0.168675802,0.153865254,9.661204771
32.47,0.237268807,0.158773761,9.686526052
32.48,0.418720818,0.123711068,9.721834508
32.49,0.60810106,0.196342464,9.761797332
32.5,0.646875438,0.077193951,9.625450435
32.51,0.643210743,0.157821747,9.710449226
32.52,0.795269034,0.119385953,9.658080891
32.53,0.875497193,0.160977079,9.724578272
32.54,0.940959964,0.128847916,9.707649872
32.55,0.990676774,0.177777757,9.665277634
32.56,1.074089447,0.097991955,9.678570912
32.57,1.102187754,0.187300067,9.759035513
32.58,1.106543035,0.160597206,9.637026579
32.59,1.262735246,0.196010936,9.753310142
32.6,0.99945571,0.111810669,9.713829388
32.61,0.709643507,0.188320263,9.757259919
32.62,0.435478758,0.164429788,9.668629908
32.63,0.480892738,0.16824982,9.756014866
32.64,0.485634603,0.11876458,9.719961961
32.65,0.425232644,0.149043231,9.668919058
32.66,0.39748876,0.183712074,9.674933806
32.67,0.281413536,0.168076032,9.735560766
32.68,0.180514979,0.12836644,9.711636813
32.69,0.048958036,0.179487861,9.72355162
32.7,-0.019540106,0.171207107,9.672642267
32.71,-0.165175748,0.16548003,9.749194558
32.72,-0.261792899,0.173350224,9.719889948
32.73,-0.414959779,0.141575027,9.682890662
32.74,-0.529399382,0.14077159,9.669636013
32.75,-0.621382239,0.172840923,9.721239243
32.76,-0.691276319,0.158783294,9.699276366
32.77,-0.776916651,0.182820666,9.682715746
32.78,-0.906834788,0.134094166,9.623795301
32.79,-1.022511488,0.150669944,9.705864054
32.8,-1.10823567,0.133308206,9.6342108
32.81,-1.234404927,0.197784508,9.675413698
32.82,-1.25452977,0.109367853,9.627141385
32.83,-0.894960333,0.204756346,9.769401315
32.84,-0.645527106,0.134349561,9.658400533
32.85,-0.562160574,0.185176803,9.6611768
32.86,-0.682864173,0.130707595,9.663858702
32.87,-0.708440436,0.206618587,9.794030412
32.88,-0.744973279,0.106233665,9.666093248
32.89,-0.604408559,0.190652985,9.726356928
32.9,-0.486588004,0.125317357,9.678361944
32.91,-0.369170653,0.165412396,9.764722167
32.92,-0.313587281,0.135541109,9.656295705
32.93,-0.192415262,0.163628934,9.70553345
32.94,-0.102603626,0.100777443,9.707168142
32.95,0.024739626,0.213021718,9.709545395
32.96,0.130417511,0.112853588,9.704596112
32.97,0.233524824,0.15348691,9.647005411
32.98,0.377833297,0.122283726,9.697572706
32.99,0.621311249,0.158888304,9.676998423
33,0.66275248,0.137973121,9.698597054
33.01,0.641171314,0.160564866,9.664386298
33.02,0.788579065,0.183167874,9.748910777
33.03,0.817080803,0.190316719,9.698722965
33.04,0.961518216,0.168245606,9.716171132
33.05,0.975037762,0.188309671,9.704895278
33.06,0.983018089,0.158749679,9.736605633
33.07,1.100161544,0.172264816,9.77161253
33.08,1.129296304,0.156790963,9.741052308
33.09,1.199846889,0.184584298,9.739984778
33.1,1.056472422,0.120024006,9.70651941
33.11,0.716960074,0.201941305,9.757987968
33.12,0.48270163,0.138573662,9.670995053
33.13,0.437697972,0.181687154,9.742418882
33.14,0.458505948,0.084315806,9.750017527
33.15,0.47254528,0.16617575,9.701553493
33.16,0.467225592,0.175448161,9.694569241
33.17,0.347290226,0.16987558,9.682044585
33.18,0.184674498,0.118233813,9.72366624
33.19,0.091789369,0.181775123,9.730476394
33.2,-0.081678123,0.147178457,9.660993309
33.21,-0.157540182,0.157641892,9.682795269
33.22,-0.259617588,0.146385672,9.696352487
33.23,-0.355974646,0.172664707,9.673370236
33.24,-0.525552688,0.165877253,9.671565674
33.25,-0.604029281,0.150753376,9.709742184
33.26,-0.73618976,0.198579853,9.712705327
33.27,-0.80543726,0.143603831,9.695912899
33.28,-0.90987877,0.161991716,9.662418346
33.29,-1.047532619,0.149285928,9.780512954
33.3,-1.102394327,0.139273016,9.648127868
33.31,-1.216860713,0.163758391,9.745971322
33.32,-1.254105313,0.097963876,9.640660281
33.33,-0.997228694,0.169480275,9.682615591
33.34,-0.62785509,0.134443895,9.689296358
33.35,-0.550064853,0.216012628,9.692197284
33.36,-0.679202284,0.125068807,9.672012176
33.37,-0.708767443,0.176190557,9.730545084
33.38,-0.757411291,0.134110622,9.73462706
33.39,-0.561731278,0.209017482,9.666430886
33.4,-0.471112986,0.134487651,9.705553834
33.41,-0.391912755,0.161303494,9.651103738
33.42,-0.319039524,0.118255089,9.704277998
33.43,-0.209845665,0.176995911,9.657889716
33.44,-0.096858597,0.124427112,9.677627176
33.45,0.077458233,0.150238312,9.696775218
33.46,0.136078507,0.124588036,9.741635968
33.47,0.222047695,0.20551316,9.671232423
33.48,0.376028935,0.149577098,9.708796683
33.49,0.596182441,0.172379602,9.779969497
33.5,0.655424388,0.118725578,9.694987122
33.51,0.611174029,0.170913405,9.684253576
33.52,0.760985544,0.177689728,9.701435858
33.53,0.849134374,0.165324664,9.763499107
33.54,0.94548197,0.160295819,9.713914268
33.55,0.951585049,0.166863333,9.688655146
33.56,1.009250927,0.124871511,9.695577224
33.57,1.095361295,0.162214997,9.766157664
33.58,1.126936579,0.157256832,9.736069199
33.59,1.180507466,0.167864984,9.67741757
33.6,1.045381495,0.139342136,9.720091331
33.61,0.737811605,0.128008054,9.688649571
33.62,0.52515614,0.136321212,9.715368438
33.63,0.45983294,0.149956053,9.692149698
33.64,0.465057952,0.142246023,9.738855899
33.65,0.480716052,0.110184348,9.71460158
33.66,0.426733524,0.205173422,9.717488574
33.67,0.35493614,0.18183332,9.673180542
33.68,0.22558084,0.15346288,9.734591461
33.69,0.067269686,0.157236906,9.744054033
33.7,-0.038690612,0.193720713,9.659141774
33.71,-0.22472258,0.117741004,9.725570107
33.72,-0.281431522,0.15162016,9.727569423
33.73,-0.423866926,0.151126156,9.710174425
33.74,-0.510056238,0.152637111,9.674919523
33.75,-0.617071206,0.165649772,9.692721593
33.76,-0.669746515,0.139345852,9.730820396
33.77,-0.838731754,0.158740806,9.725628633
33.78,-0.890051205,0.118035537,9.663538652
33.79,-1.005445623,0.182504826,9.689809908
33.8,-1.04157085,0.095006431,9.705562187
33.81,-1.156621506,0.109970555,9.720533559
33.82,-1.282497603,0.107931379,9.674362764
33.83,-0.891840846,0.168750409,9.68494527
33.84,-0.697708621,0.175566132,9.680477458
33.85,-0.536814845,0.167516803,9.716533853
33.86,-0.708223567,0.147133055,9.66896626
33.87,-0.673871691,0.180630629,9.683539354
33.88,-0.727160137,0.13623053,9.683470413
33.89,-0.553894575,0.16578342,9.677483013
33.9,-0.514380257,0.122458424,9.669298505
33.91,-0.437518916,0.167381527,9.725092785
33.92,-0.300186011,0.124813465,9.719136429
33.93,-0.261521369,0.180095139,9.671443104
33.94,-0.078194627,0.171069687,9.661741517
33.95,0.02003822,0.139940499,9.693595423
33.96,0.153637916,0.094775886,9.756064036
33.97,0.242317195,0.166948683,9.616324554
33.98,0.422349198,0.150329474,9.720206496
33.99,0.564210493,0.148859237,9.717154518
34,0.646297391,0.121093336,9.752182699
34.01,0.665883566,0.176429699,9.616958902
34.02,0.772915915,0.194622363,9.662818596
34.03,0.842711675,0.150301346,9.704887097
34.04,0.931387269,0.167127041,9.718272629
34.05,0.976865621,0.151903931,9.656843661
34.06,0.990826191,0.142920453,9.698106181
34.07,1.142869003,0.146661978,9.751117171
34.08,1.072864191,0.160462851,9.750687637
34.09,1.180706771,0.152799429,9.697734787
34.1,1.058192914,0.176646093,9.692161808
34.11,0.719102005,0.160463197,9.724623194
34.12,0.474117059,0.174391307,9.72910263
34.13,0.459011219,0.159184059,9.697336487
34.14,0.531870532,0.132139488,9.694324817
34.15,0.460890687,0.157288834,9.726864378
34.16,0.412890427,0.175365266,9.707384444
34.17,0.362240133,0.161645215,9.682950178
34.18,0.217998751,0.138272832,9.724552849
34.19,0.074232181,0.159196372,9.754477259
34.2,-0.062798965,0.19735222,9.701417408
34.21,-0.162911178,0.106627824,9.677430639
34.22,-0.223881965,0.139715765,9.68498758
34.23,-0.402388189,0.138431486,9.684343904
34.24,-0.53709541,0.160013798,9.70551136
34.25,-0.616515358,0.110378196,9.646411153
34.26,-0.674662519,0.163720838,9.738121307
34.27,-0.786715484,0.15616265,9.683758542
34.28,-0.889699292,0.181925139,9.713592191
34.29,-0.981375568,0.174289476,9.733783558
34.3,-1.020393189,0.18696545,9.695655653
34.31,-1.169853811,0.187604854,9.723353195
34.32,-1.23334434,0.166448467,9.694122573
34.33,-0.982587628,0.175193771,9.762438541
34.34,-0.681941071,0.125173433,9.684521693
34.35,-0.564091912,0.166905331,9.711778724
34.36,-0.668106552,0.16557569,9.675998311
34.37,-0.754944495,0.19063059,9.72882438
34.38,-0.760999806,0.127579294,9.702131423
34.39,-0.593630264,0.178993821,9.735028961
34.4,-0.467602331,0.143080963,9.660929186
34.41,-0.363109764,0.1417599,9.723718016
34.42,-0.329030094,0.151278894,9.680916926
34.43,-0.2153237,0.163211298,9.713177008
34.44,-0.103112754,0.179153491,9.667751336
34.45,0.0576557,0.163438303,9.689862401
34.46,0.146069774,0.147375051,9.733263697
34.47,0.278743925,0.143272057,9.648206532
34.48,0.389904794,0.173034156,9.651263898
34.49,0.609073061,0.162522934,9.705649284
34.5,0.663235262,0.160289576,9.701441739
34.51,0.630394125,0.152371822,9.722826127
34.52,0.758428346,0.187184574,9.641957899
34.53,0.796440614,0.142271989,9.733896379
34.54,0.895760668,0.19262827,9.742525623
34.55,0.947789274,0.16045748,9.683567878
34.56,1.031124855,0.172661332,9.671371178
34.57,1.02017562,0.158095892,9.699945284
34.58,1.09503077,0.162683095,9.800343987
34.59,1.215132192,0.159764916,9.692994745
34.6,1.078626757,0.154999647,9.670418734
34.61,0.737478502,0.144189967,9.770438261
34.62,0.485146167,0.148886638,9.790675333
34.63,0.518776868,0.176398072,9.729564493
34.64,0.487041669,0.136988491,9.692163132
34.65,0.474692573,0.130939673,9.720711658
34.66,0.42368687,0.164319932,9.714743631
34.67,0.350613019,0.145799071,9.627369876
34.68,0.197227129,0.138004164,9.690708558
34.69,0.080601341,0.152780171,9.738858068
34.7,-0.010484477,0.171231068,9.69075285
34.71,-0.169954814,0.141559534,9.688086621
34.72,-0.249244676,0.152178705,9.700790769
34.73,-0.411607273,0.151187551,9.757107983
34.74,-0.532157578,0.138780321,9.672812982
34.75,-0.660778663,0.134158813,9.690724143
34.76,-0.685886908,0.164402437,9.715218924
34.77,-0.773165753,0.18158823,9.762403148
34.78,-0.899443409,0.153856655,9.712663805
34.79,-0.986037515,0.156483949,9.751186308
34.8,-1.087287159,0.155115447,9.711516275
34.81,-1.247260837,0.186550477,9.760255873
34.82,-1.296134024,0.166834156,9.704495194
34.83,-0.910165535,0.143342246,9.665988004
34.84,-0.659164291,0.1422418,9.698705238
34.85,-0.539435477,0.151112205,9.690843881
34.86,-0.694784703,0.116976404,9.643944816
34.87,-0.726231004,0.130274727,9.666226417
34.88,-0.745686294,0.140569554,9.723379933
34.89,-0.604705729,0.188765501,9.734870068
34.9,-0.491869319,0.179291921,9.640269764
34.91,-0.360416374,0.150338714,9.676351497
34.92,-0.2941452,0.137302366,9.688256922
34.93,-0.237824375,0.174888928,9.728428169
34.94,-0.081852891,0.126863321,9.640173605
34.95,0.049400153,0.175700685,9.734088826
34.96,0.104340389,0.123577158,9.726317391
34.97,0.222227758,0.204478019,9.748564943
34.98,0.343722999,0.166920934,9.672451852
34.99,0.596077484,0.191795836,9.725251667
35,0.684295773,0.113140577,9.696109927
35.01,0.675441539,0.163492465,9.696250369
35.02,0.762729107,0.153221762,9.637836989
35.03,0.851195527,0.148307189,9.716972577
35.04,0.902706192,0.145797026,9.748986512
35.05,0.997087306,0.165324844,9.677565406
35.06,1.068246624,0.199220993,9.694085119
35.07,1.103188328,0.154502149,9.731373001
35.08,1.100559464,0.177660782,9.75719138
35.09,1.253431732,0.174507676,9.715566091
35.1,1.036769746,0.172753151,9.627724515
35.11,0.68783518,0.155429202,9.749039855
35.12,0.482482088,0.153379634,9.73155734
35.13,0.482166343,0.139244412,9.739278987
35.14,0.525756315,0.1389272,9.636512128
35.15,0.431981657,0.147058744,9.7243918
35.16,0.404153841,0.191645155,9.750655228
35.17,0.296248354,0.136663916,9.676564258
35.18,0.204284841,0.143881982,9.704907327
35.19,0.017434518,0.13019017,9.748668598
35.2,-0.100129331,0.173339313,9.722672179
35.21,-0.282230782,0.125423496,9.732858097
35.22,-0.354900448,0.143419611,9.707516332
35.23,-0.541611529,0.141345419,9.752001307
35.24,-0.700038382,0.178020912,9.706736483
35.25,-0.726447275,0.12375198,9.724890859
35.26,-0.795583492,0.122070985,9.656828999
35.27,-0.828456792,0.138295009,9.719979543
35.28,-0.952825932,0.157660156,9.615159112
35.29,-0.90787027,0.178633942,9.748186507
35.3,-1.129852021,0.144810558,9.604642474
35.31,-1.188708421,0.153821817,9.796413476
35.32,-0.972296341,0.165750075,9.626463917
35.33,-0.631036622,0.196376749,9.746711392
35.34,-0.4685583,0.122315968,9.588206057
35.35,-0.460065469,0.163810104,9.737793453
35.36,-0.564609663,0.1361397,9.636733384
35.37,-0.519392913,0.207020392,9.752295689
35.38,-0.469506035,0.118102956,9.719505218
35.39,-0.337441131,0.155724354,9.769668928
35.4,-0.248884575,0.161081021,9.690757387
35.41,-0.207781424,0.166425534,9.726905334
35.42,-0.147136774,0.154597599,9.714592474
35.43,0.01592016,0.149402653,9.7035002
35.44,0.062712683,0.153004223,9.634883232
35.45,0.182755163,0.129256894,9.671014246
35.46,0.221924925,0.119973578,9.707802292
35.47,0.337973831,0.155323784,9.699524267
35.48,0.437186838,0.167299024,9.679681274
35.49,0.511267356,0.143622981,9.663667002
35.5,0.602736137,0.14742826,9.698946238
35.51,0.663158532,0.200558736,9.735864401
35.52,0.641239061,0.148587295,9.667379959
35.53,0.62933029,0.157478616,9.723641154
35.54,0.625711284,0.128160245,9.724289734
35.55,0.646770882,0.200891887,9.771162516
35.56,0.663287115,0.129544738,9.63821502
35.57,0.720756492,0.210132439,9.711800273
35.58,0.694974959,0.101583012,9.7026793
35.59,0.683550072,0.198576189,9.756515955
35.6,0.472029881,0.139266574,9.677004712
35.61,0.293913753,0.19642114,9.731391877
35.62,0.204540258,0.13771498,9.723790856
35.63,0.206402004,0.178769686,9.720828621
35.64,0.188015113,0.119826643,9.676121586
35.65,0.156284225,0.156953732,9.729466174
35.66,0.033745732,0.09423059,9.724017848
35.67,0.007063029,0.184176535,9.69493259
35.68,-0.045375301,0.149532496,9.716246439
35.69,-0.118782809,0.165177411,9.743281955
35.7,-0.190568542,0.169807286,9.689130283
35.71,-0.236140108,0.171356718,9.724363836
35.72,-0.26265753,0.119805845,9.664175913
35.73,-0.351517032,0.188467186,9.74140319
35.74,-0.365290797,0.128957876,9.656238441
35.75,-0.464833606,0.171333817,9.662692784
35.76,-0.450569269,0.15384766,9.647717511
35.77,-0.52040189,0.150560909,9.72586346
35.78,-0.672145237,0.133989343,9.679314284
35.79,-0.614570277,0.173417011,9.672936858
35.8,-0.364739569,0.137277137,9.733414021
35.81,-0.23067825,0.195018133,9.741214149
35.82,-0.289230039,0.155121171,9.710148838
35.83,-0.254473885,0.16204969,9.670756754
35.84,-0.312204585,0.141756529,9.708378006
35.85,-0.173220495,0.14113173,9.76438403
35.86,-0.118304291,0.137063878,9.61110977
35.87,-0.042894599,0.152714111,9.685851407
35.88,-0.066291702,0.13260201,9.686233197
35.89,-0.036664789,0.160394067,9.749013695
35.9,-0.081580316,0.120662473,9.59118522
35.91,0.023419754,0.184063854,9.72447913
35.92,0.084961286,0.118237991,9.665252917
35.93,0.155477077,0.188429929,9.718840702
35.94,0.114228077,0.095570417,9.636310557
35.95,0.157943249,0.208484546,9.706600765
35.96,0.14763792,0.115279285,9.667543458
35.97,0.24643445,0.206830084,9.797437839
35.98,0.211070555,0.144899664,9.687226785
35.99,0.269652129,0.167955891,9.724757465
36,0.224140884,0.129073361,9.74387408
36.01,0.242232981,0.177620632,9.746560769
36.02,0.236260832,0.171563844,9.664905729
36.03,0.270563703,0.195559013,9.719997987
36.04,0.15694314,0.150658668,9.709879562
36.05,0.174524482,0.135024005,9.733710551
36.06,0.158140504,0.124435412,9.618934986
36.07,0.156471158,0.151667491,9.701492424
36.08,0.074219386,0.148104064,9.70066167
36.09,0.023948795,0.150561301,9.735798622
36.1,0.016237666,0.165588968,9.614651573
36.11,0.029202146,0.138880619,9.734433962
36.12,0.005060215,0.138599057,9.714930435
36.13,-0.030119416,0.186443769,9.712445958
36.14,-0.121771447,0.157964419,9.598197321
36.15,-0.124042662,0.163681032,9.748693661
36.16,-0.132916698,0.13241476,9.699468711
36.17,-0.134220821,0.18722509,9.734355525
36.18,-0.156221002,0.129575456,9.625576977
36.19,-0.044784376,0.198276875,9.72549301
36.2,-0.049319133,0.137419678,9.687503861
36.21,0.082519432,0.206670034,9.682054334
36.22,-0.018778606,0.129932113,9.62931952
36.23,0.043649497,0.170664995,9.754239134
36.24,-0.043693968,0.137434403,9.695045256
36.25,0.015376964,0.174573123,9.722481383
36.26,-0.001822625,0.145356806,9.636863465
36.27,0.048019287,0.180618926,9.78712238
36.28,-0.018382793,0.111716617,9.664935983
36.29,0.048741045,0.168323072,9.734032257
36.3,-0.019855526,0.121624871,9.669275236
36.31,0.038932469,0.179887477,9.741315973
36.32,0.028193484,0.130972105,9.631272634
36.33,0.011207448,0.171273441,9.739216336
36.34,0.024655307,0.127843148,9.643203632
36.35,0.027271867,0.184717449,9.746282038
36.36,0.03865858,0.154866612,9.665435696
36.37,0.028469004,0.202847525,9.66129897
36.38,0.030907022,0.1329215,9.660513977
36.39,0.035444928,0.191667118,9.737156443
36.4,0.028946908,0.126165444,9.689633619
36.41,0.023467755,0.1858022,9.688672309
36.42,-0.000367164,0.133612309,9.721663999
36.43,0.001261864,0.172609749,9.769934724
36.44,-0.007519189,0.148680756,9.724395907
36.45,0.045901938,0.162936077,9.670482395
36.46,-0.022864033,0.136831476,9.720389614
36.47,0.050999289,0.145055708,9.745228729
36.48,0.013213273,0.156792622,9.661235392
36.49,0.001912223,0.175727889,9.705629211
36.5,-0.003490614,0.109858349,9.686321859
36.51,0.008533542,0.188813982,9.749936133
36.52,0.033803437,0.148650663,9.663943405
36.53,0.022707555,0.158169383,9.740532011
36.54,0.015291031,0.09947342,9.712036286
36.55,0.042676235,0.175487438,9.732755107
36.56,-0.000748366,0.13094506,9.627226691
36.57,0.04824286,0.164308283,9.705128199
36.58,0.026719841,0.127364822,9.703958744
36.59,0.052242907,0.197376188,9.720719986
36.6,-0.023673896,0.158363193,9.704955199
36.61,0.045791982,0.167625557,9.702297917
36.62,-0.017946266,0.156352773,9.731272436
36.63,0.020638758,0.174532727,9.720836699
36.64,-0.020771346,0.169466444,9.667150836
36.65,0.039220485,0.14953528,9.686854433
36.66,0.009690156,0.133393125,9.695186775
36.67,0.00636844,0.172962196,9.738596371
36.68,-0.003782973,0.140536043,9.657597543
36.69,0.006019182,0.17706975,9.731870752
36.7,-0.014449626,0.135466166,9.722423216
36.71,-0.00356787,0.164265555,9.715824985
