Time (s),Acceleration x (m/s^2),Acceleration y (m/s^2),Acceleration z (m/s^2)
54.07,0.00437144302854291,0.02589188440382481,-0.15863805215900573
54.07999999999995,-0.009235723140893702,0.015261892787960177,-0.18224742518159745
54.09000000000002,0.00243432003859595,0.0011448134947022045,-0.1559578179940844
54.099999999999966,-0.02836275400492906,-0.012046672770898688,-0.12741790396763142
54.109999999999985,0.04092421217211646,0.01825739141936547,-0.12261229212451155
54.11999999999994,0.28870034229469765,0.01058848605832949,-0.15757549372879415
54.129999999999995,0.6232294531299868,0.028301497300562688,-0.13306589901682037
54.13999999999998,0.5606655048783356,0.008324137413725202,-0.14452814649533183
54.14999999999998,0.07354316466587539,0.01424684664454468,-0.1734742072714419
54.16,-0.6477836992496129,-0.017478760262046564,-0.1461481387214198
54.170000000000016,-1.4561048817929574,-0.022552068379356572,-0.1581452315786508
54.17999999999997,-1.6819461230519344,-0.04710884364514266,-0.1396137314402315
54.189999999999955,-1.272348333277076,-0.014196733417884485,-0.14320287519570968
54.19999999999998,-0.6106756503391891,-0.004175529044138494,-0.1315859215139562
54.20999999999999,0.057908934688118176,-0.014356774779000978,-0.114574808602758
54.219999999999914,0.6347963603796057,0.009207851187446284,-0.11825829072921583
54.22999999999995,1.4346938042859991,0.04477331091650747,-0.09401882684892097
54.23999999999994,2.3475178166286588,0.05550263525706026,-0.07942909521842383
54.25000000000003,2.7800908478079056,0.04780431171224157,-0.07402749258833774
54.25999999999997,2.522369588650121,0.05744859043843237,-0.06652540210216626
54.269999999999975,1.7065952102969988,0.019785840053379487,-0.08551135532685365
54.279999999999994,0.7285611939772344,-0.007374755981577816,-0.12167370149493813
54.28999999999998,-0.45294806207453764,0.006877204523328428,-0.09933451813389149
54.29999999999999,-1.6921825831389865,-0.026506585047961984,-0.09091079003983384
54.309999999999995,-3.0970337089443993,-0.08129455400149416,-0.1811408251657359
54.319999999999936,-4.614627005588315,-0.1487552301489602,-0.17258756384931295
54.32999999999997,-4.238877698851,-0.009210684685641499,-0.1518645327546627
54.340000000000025,-2.82764942504291,-0.045115637522640036,-0.11516943334747305
54.349999999999966,-1.8499892648672775,-0.09449532427562214,-0.15990098622461796
54.35999999999993,-0.7316427500497767,-0.0157267666075292,-0.10486739085208242
54.369999999999976,0.4754361892468968,0.04331683472276287,-0.09380103280844476
54.38000000000001,2.303231678752915,0.036993577668524485,-0.09070964816499982
54.38999999999998,4.265682425274053,0.1216813629817448,-0.07360512673522328
54.399999999999984,5.430203466366973,0.08879307668634435,-0.008162675362703235
54.40999999999996,4.721746147689296,0.08362430555192008,-0.07933105799020981
54.419999999999995,3.220896174402511,0.10850055396733144,-0.06712819443844464
54.42999999999993,1.7184039913984224,0.0174713784569851,-0.06181127578159701
54.43999999999994,-0.06526789433585922,-0.00822273037152378,-0.13352733903972963
54.449999999999946,-1.7953220984649854,-0.03843755819541089,-0.14501824482247927
54.459999999999965,-3.4958842080718133,-0.06554899411360816,-0.16052841117546982
54.46999999999999,-6.072827854426099,-0.16661776562155248,-0.22173439335422213
54.47999999999998,-6.857966044951434,-0.14390808602724525,-0.1664733944071389
54.48999999999998,-4.399844365039158,-0.016050420877787037,-0.1484152668212137
54.499999999999986,-2.830750609765347,-0.07024204852653985,-0.21239777880580143
54.50999999999995,-1.3774559488745166,-0.05128156406871849,-0.1594002977352832
54.52,0.17198366901699533,0.030666270323353343,-0.10409239857889015
54.529999999999916,2.0218465177169986,0.011503109349472483,-0.11920548746547646
54.54,3.9500536422810293,0.08580973687158558,-0.09072072818604975
54.54999999999999,5.707067086562933,0.15088235073314754,-0.026485717052876234
54.55999999999995,5.659489187822809,0.0832685843742509,-0.07829369948755768
54.56999999999993,4.016436245201808,0.06576974080937498,-0.12411049915292612
54.58000000000003,2.7366461243689235,0.09382343730127837,-0.14237053477760128
54.58999999999995,0.7581815114525691,3.24252986871909e-05,-0.04466889976708176
54.60000000000001,-1.0470061439510308,-0.03125876559822696,-0.22592167408750682
54.60999999999995,-2.4108623585228175,0.0014989190767112218,-0.09368029869416437
54.61999999999997,-4.305943230983554,-0.1009861966976132,-0.18775003224376885
54.62999999999997,-6.7267071569727275,-0.14059990950761123,-0.31316763199379977
54.639999999999986,-6.074303549655253,-0.10736798137079699,-0.11623637312254545
54.64999999999998,-3.732889643290357,-0.028859601071056108,-0.22369647915118226
54.65999999999994,-2.4843703570790097,-0.06927891727864885,-0.2512351526592738
54.669999999999995,-0.8212076421454144,-0.049241269486248386,-0.10410242642276431
54.679999999999964,0.9244526693609911,0.05439848490338784,-0.11323813916498983
54.69000000000001,2.6446792065161127,0.05310253873924746,-0.18492333064359634
54.69999999999995,4.600961670957815,0.12783413159265708,-0.02968897468064608
54.70999999999995,5.952240663594473,0.08924473547725975,-0.08242072569363415
54.71999999999999,4.994119622348371,0.12348886303895501,-0.08585424321630414
54.73,3.5180966020850324,0.09631357843100065,-0.12006226685157537
54.739999999999974,2.114346780002092,0.05160225507145531,-0.12936388206599728
54.749999999999915,-0.0014591714482815213,-0.014158080208822886,-0.117384948652455
54.75999999999998,-1.5837583202988126,-0.03628437833101245,-0.26631223746570454
54.769999999999946,-2.9681953778152934,-0.03225688627581967,-0.12304558457563768
54.77999999999993,-5.204594513597227,-0.13547925990639043,-0.24222377115414284
54.79000000000001,-6.8375073938655335,-0.13406060813857093,-0.25770980619807987
54.79999999999999,-5.038715049097313,-0.06408131751742206,-0.10277996624532572
54.809999999999995,-3.1699894997802653,-0.08150387765994493,-0.21780071621638
54.81999999999998,-1.9170223951785823,-0.048526019572038157,-0.22489656978317224
54.82999999999999,-0.2733611176933797,0.008069149899395783,-0.10353952896895612
54.84000000000002,1.6137132932625962,0.0027530398233042964,-0.15698776440138296
54.85,3.439592700215246,0.09277250109951257,-0.18666464802362187
54.85999999999999,5.230270018637768,0.1254304275702755,-0.044670984391517274
54.86999999999998,5.80096857944721,0.08668365563411279,-0.1835500641891191
54.88000000000001,4.228264264441658,0.11610271019698903,-0.17084757205250511
54.88999999999993,3.115954840752583,0.06800659247924672,-0.16850934696426564
54.899999999999984,1.457211913509879,0.052990823245424166,-0.102801337683659
54.90999999999996,-0.6386731168716785,-0.01502329041614809,-0.17219053997523803
54.919999999999995,-1.9669388234659184,-0.02182472373148989,-0.24468929996809244
54.929999999999986,-3.671781348431891,-0.05041746066138738,-0.1403111426120056
54.94000000000001,-5.983429402168678,-0.17099690126056627,-0.2803293972209234
54.950000000000024,-6.533661714362031,-0.07882555380935238,-0.1405674989009416
54.95999999999995,-4.126134891342212,-0.06371407704706997,-0.14677155353346039
54.96999999999996,-2.7167861956425043,-0.08377651996566343,-0.2912480793534553
54.97999999999998,-1.388701588569169,-0.024290334021296437,-0.21097184709867448
54.98999999999994,0.37692303531138405,0.04763316905782127,-0.031008212658398007
55.00000000000001,2.1819851879884964,0.02333836402331648,-0.20802460816880292
55.00999999999995,4.120667827764832,0.12095118026479901,-0.11749527866760705
55.01999999999993,5.723156000496245,0.10721493961486891,-0.11344977438244434
55.030000000000015,5.350058902605136,0.10937429254434991,-0.22019563870799075
55.03999999999998,3.6254104583213276,0.13315753706701583,-0.10601270585207888
55.04999999999994,2.6630558615405775,0.05406410131369407,-0.21297084296619
55.059999999999995,0.5740781747783187,0.02028560418418428,-0.11005156327113544
55.070000000000014,-1.0593255465115792,-0.022574151342485773,-0.2220002239474106
55.080000000000005,-2.5305980474535916,-0.02665800279828777,-0.16309818239141538
55.089999999999975,-4.502963460055365,-0.10939701587977116,-0.1764047399921126
55.099999999999994,-6.682311110268096,-0.1361424146595577,-0.28949900786977034
55.10999999999996,-5.587433097159484,-0.029152507958328785,-0.13988356328015786
55.12000000000001,-3.482209099084446,-0.08698964001556826,-0.16439461001107367
55.12999999999997,-2.404473538307691,-0.06783905961558076,-0.29234412657318826
55.139999999999965,-0.7299547065600296,0.01429712420804117,-0.17344877834510303
55.15000000000002,0.8667645227505999,0.02331719643660137,-0.10352816627461467
55.15999999999994,2.9148435217757838,0.05279909414202398,-0.22974554012892381
55.169999999999966,4.717211836640718,0.1624639399033697,-0.05298218285646602
55.18000000000001,5.8089783274750735,0.08188299997378216,-0.1365358721814933
55.18999999999999,4.580552106931076,0.10002308302211822,-0.19343730912398485
55.19999999999999,3.1424407200131483,0.12398053789147562,-0.12896501729427368
55.20999999999997,2.082087436109853,0.044486944038706656,-0.16704124602381154
55.22,-0.035598539802169225,0.009560494930338583,-0.1391795502234949
55.23000000000002,-1.5358381993646715,-0.03833089862411478,-0.27534569717476043
55.239999999999945,-3.337862911289071,-0.03523241362596531,-0.1793408091448203
55.249999999999986,-5.4254876767841065,-0.17388122451262003,-0.22530978815975372
55.25999999999998,-6.601473785529668,-0.11873380381726695,-0.2830716322915103
55.27000000000001,-4.54575167874852,0.006704598838176286,-0.14927384846165162
55.280000000000015,-3.1228241164868935,-0.09531925853326152,-0.23742729104702295
55.28999999999995,-1.853879595659731,-0.05204776161503368,-0.2721792268471546
55.3,-0.22250120867341308,0.03978928279988767,-0.035139431421658596
55.30999999999999,1.6168238497682812,0.01562697301145703,-0.13056850503086637
55.319999999999936,3.630579839602701,0.09337234726787372,-0.1859679655301259
55.32999999999997,5.160760379746752,0.14203977301246246,-0.0408430665949204
55.33999999999999,5.701789291816261,0.06472270661257698,-0.17536487811694468
55.34999999999996,3.8498915064514314,0.1509337919728863,-0.07890406830172042
55.359999999999964,2.9010518003349874,0.08893636681737375,-0.15407059212994173
55.369999999999976,1.1650329165105615,0.005348101586815596,-0.05233377360379221
55.379999999999974,-0.5037710069005499,-0.020832527962639687,-0.15182755798520248
55.38999999999998,-2.2077428257264455,-0.013638471645308882,-0.2021845615502888
55.399999999999956,-3.9159026204035463,-0.07501150823651581,-0.10958131074600312
55.409999999999975,-6.097255304410435,-0.1964398810439986,-0.24357708610455053
55.42,-6.064113114123152,-0.06233800864277628,-0.13890632567634503
55.429999999999964,-3.7835722196374153,-0.03980819602318338,-0.07258735200836641
55.439999999999976,-2.7579360201040255,-0.09185295709510484,-0.20637378640101944
55.45000000000003,-1.2862216138901457,-0.05197511433932227,-0.1512899832646603
55.459999999999965,0.26608213515353313,0.04572152113395447,0.007625881945630074
55.46999999999995,2.4515777312602505,0.02192259033503516,-0.15600713413730713
55.48000000000001,4.077906292896405,0.13089722948719656,-0.07136750238737638
55.48999999999998,5.690769741269377,0.10671664735545025,-0.013879822321496272
55.49999999999996,5.035704534403922,0.049981285170666995,-0.1575463751872212
55.50999999999999,3.4712885940745206,0.1483161309215729,-0.07787736128640216
55.51999999999996,2.3604806609544142,0.056259677031025274,-0.1267622767562136
55.52999999999999,0.5373837935996773,0.013868724574363318,-0.06400379753327216
55.540000000000006,-1.035984754158004,-0.028230596880111557,-0.15486602964783128
55.550000000000004,-2.8664729633592456,-0.03803711269394807,-0.17500375973845342
55.559999999999945,-4.622230331784956,-0.11045571914502268,-0.15927873994145167
55.56999999999997,-6.582735357806771,-0.18177388388595253,-0.2451323417999205
55.579999999999934,-5.2164479439551785,-0.026634511357272603,-0.10695357242098606
55.589999999999975,-3.287901309592223,-0.06492366310793764,-0.16565203541513293
55.599999999999994,-2.2512343352201176,-0.08837285229582338,-0.2511144276859884
55.60999999999997,-0.6574212273099481,-0.02336344438028083,-0.1283174347684219
55.61999999999994,1.0172490831714849,0.05136835859281603,-0.05214463216716697
55.63000000000002,3.1315734671586886,0.04052090770599025,-0.16153031581662639
55.640000000000015,4.799259875733202,0.15511658959744593,0.04191984375953651
55.64999999999999,5.885885591750757,0.09817465593394986,-0.07319495095943884
55.660000000000025,4.415115183032973,0.09773030246203827,-0.11282695678358423
55.67000000000002,3.0315870042038497,0.13566412480296466,-0.11907898362553694
55.67999999999993,1.7033609658855335,0.05148287893880123,-0.13633049441068518
55.68999999999996,0.06105556906608305,0.01235934442731352,-0.09436083974297975
55.69999999999998,-1.7378407057360956,-0.03441876602899376,-0.20054582989886813
55.71000000000002,-3.3181732081905504,-0.05179590186085845,-0.20660685271162307
55.72000000000002,-5.6423499773283945,-0.16613082406886426,-0.2592721405527864
55.73,-6.371664832160156,-0.13260718255347828,-0.17304943175953028
55.739999999999974,-4.153468182847013,-0.041500545276525976,-0.07515662655820778
55.749999999999986,-2.942209565562724,-0.06358502928136328,-0.2105641338318112
55.759999999999955,-1.7682032739708027,-0.0753523837945623,-0.22815793626247935
55.76999999999991,-0.1703063805457441,0.028988166887219526,-0.04922336858476863
55.779999999999966,1.9197737958488712,0.05721272882379166,-0.14320028306246907
55.789999999999985,3.7552372719447766,0.08114573780885943,-0.10688762933774856
55.79999999999999,5.351380170657141,0.12578139996455212,0.0012978846205597815
55.809999999999974,5.576697646899996,0.06675967192089727,-0.11499325303233557
55.819999999999965,3.8302858344227078,0.12440263710090406,-0.08687034217908716
55.82999999999992,2.6106893942860205,0.09107261725508604,-0.12715317817795904
55.83999999999998,1.1009280111573003,0.026430357691012405,-0.10161764113900022
55.84999999999997,-0.6520331614034062,-0.00828514544436076,-0.1407360753327825
55.859999999999985,-2.3533338036626668,-0.019644371646532658,-0.21613713334196089
55.869999999999976,-4.1263106198736565,-0.07091341076669785,-0.18954004714995373
55.88000000000002,-6.32917088092572,-0.1577467184090187,-0.3101321330756543
55.89000000000002,-5.880493784682383,-0.04154173126667037,-0.17780891843992783
55.90000000000002,-3.467282780110353,-0.05204731395734648,-0.13136133849014472
55.90999999999996,-2.590364039512359,-0.05882717444697435,-0.2803047735923798
55.91999999999995,-1.3783000984970826,-0.053694367653409854,-0.20569903237681142
55.929999999999986,0.5738149105361241,0.03929321920818817,-0.07714960511639425
55.93999999999996,2.7204692313802887,0.09154848290082551,-0.15545009723006317
55.94999999999991,4.647682271280437,0.15022850932819476,-0.04997509418231587
55.95999999999998,5.926132396153343,0.06891470838580338,-0.05905690632371248
55.96999999999996,4.90355776322253,0.1084996118197971,-0.09927352744214568
55.97999999999998,3.196495290470828,0.13708441765656118,-0.12930402008606504
55.99000000000004,1.9365916001028027,0.027678675311705318,-0.11075788543979172
56.0,0.32699093975042964,0.002569159333473977,-0.11530416736019491
56.01000000000004,-1.4209289494574444,-0.02913906362676927,-0.1366606815067002
56.02000000000001,-3.13308672324932,-0.02364649925961619,-0.14447195578196667
56.029999999999966,-5.37971247661751,-0.18186091928951367,-0.18021406372201051
56.040000000000006,-6.745529246470075,-0.1488795578885365,-0.23812079012726145
56.04999999999999,-4.635358845724668,-0.031439579555183096,-0.09013217551767205
56.059999999999995,-2.9017547636613408,-0.08530389084932613,-0.12326117977379038
56.06999999999997,-1.9472627430727647,-0.07872959093195372,-0.20279630703467805
56.08000000000003,-0.47328411143998383,-0.0022857175449580856,0.0016266479835962936
56.08999999999999,1.5943475409652368,0.02126549496228178,-0.10950119133538919
56.099999999999994,3.5679868196818982,0.12416361032940182,-0.09808668620151828
56.11000000000003,5.205087394484962,0.1444167860187776,0.013205121171085918
56.11999999999999,5.671217573634247,0.048294352005698156,-0.11850640574362661
56.12999999999994,4.066692427655608,0.12278911694648971,-0.07292565063534223
56.14,2.778374527910951,0.09194170395263881,-0.07275326417396395
56.14999999999997,1.3123995811243672,0.029711318894509012,-0.09288238168206368
56.16,-0.3793372400469167,-0.020144762874216505,-0.10635233044246238
56.16999999999999,-1.970514739519198,0.014984412519756853,-0.1876456036131108
56.179999999999964,-3.8147376178801693,-0.06045676274109767,-0.11871433052103274
56.189999999999976,-6.2928546892147255,-0.20292240823384286,-0.2707945878683275
56.20000000000001,-6.315672558680211,-0.06958886190034964,-0.22153438222590938
56.21000000000001,-3.6724379281749555,-0.043328853252698356,-0.07402225266558998
56.21999999999996,-2.538336962488325,-0.07510154075782145,-0.22932608377903635
56.23000000000003,-1.5338905507142682,-0.05921733036366082,-0.17446662043603803
56.239999999999995,0.2974934684073379,0.038065619505490686,-0.03214535276976603
56.24999999999996,2.2333683585833906,0.04191662077675125,-0.13120309659874912
56.260000000000005,4.264337540984533,0.16176416329359386,-0.06344910607453885
56.26999999999997,5.81477333641916,0.11839866275320472,-0.005143116655555995
56.27999999999995,5.171219521033485,0.041580759530565926,-0.09280505522030993
56.29,3.465995092038317,0.1601275885265386,-0.12511379895205355
56.29999999999997,2.3921647348362436,0.03894379831031172,-0.10863112757234314
56.30999999999999,0.6684126313129662,0.015743774942922697,-0.10493517297524016
56.319999999999986,-1.0543524001528584,-0.03293372924182694,-0.14053691280587
56.32999999999997,-2.6718243274787494,0.00518875974683376,-0.18231269138491032
56.33999999999996,-4.811286132076533,-0.13115286187004735,-0.22297168338274637
56.35000000000001,-6.84916993071017,-0.18920758323932832,-0.25003601158669947
56.359999999999985,-5.3341623594397625,-0.04160683771304228,-0.179960438784292
56.36999999999998,-3.11540513659387,-0.06761672049668788,-0.1657286463087378
56.379999999999995,-2.2987378535786083,-0.06551487192236263,-0.28777077727425454
56.38999999999993,-0.7970578652628665,-0.025856235035305594,-0.048046915442973785
56.39999999999997,0.9792425331039029,0.027132887384938457,-0.08447165912902639
56.41000000000003,2.979851524663876,0.06456051611647477,-0.13191835572752408
56.420000000000016,5.107819829815063,0.17941415800726299,0.004237357095813864
56.429999999999964,5.529800223971248,0.06797243947334054,-0.03874810402423971
56.44000000000001,4.246275089714214,0.10413494075636266,-0.14001855694868662
56.449999999999996,3.657364445537646,0.15122842604881678,-0.06080943836703572
56.459999999999916,1.742484293445713,0.016660223974080998,-0.09174692168867667
56.47,-0.4439364734127187,-0.017301810836477065,-0.17925080901526372
56.48000000000001,-2.0860376935536524,-0.027774394843872178,-0.19745872342245796
56.49000000000003,-3.70662357679717,-0.03992905913858416,-0.19495050632639582
56.5,-5.70202651098386,-0.13021011362326865,-0.29482275254952806
56.50999999999998,-5.653587719118495,-0.09918399870518733,-0.24091805055909107
56.519999999999975,-3.2095448502217696,-0.03594564691361407,-0.12857989889269208
56.52999999999999,-1.9155997215631086,-0.03309487784035609,-0.24326720011829375
56.53999999999994,-0.8534341271481168,-0.03209051052055537,-0.17611664483371903
56.54999999999999,0.38873223204405016,0.022136695829035075,-0.06273001041189477
56.56000000000003,2.060867652840002,0.013700720883191384,-0.14770398865953221
56.57,3.434782912248139,0.1383838342646466,-0.10420379239399173
56.580000000000005,3.453575996022118,0.05717329092242856,-0.08047054906975495
56.58999999999999,3.0205300052887565,0.04381029594500817,-0.17642412758375822
56.60000000000001,2.066217994316369,0.10107549848924713,-0.12558108622458064
56.60999999999999,0.783799619407428,0.012778384663600395,-0.13972700442354358
56.620000000000005,-0.4055057665632178,0.0282422643460244,-0.12575395912603674
56.62999999999996,-1.3521149391528526,0.006711158833769897,-0.18500959994492483
56.63999999999993,-2.1706973066620803,-0.06543612925226913,-0.1713045488425348
56.64999999999995,-2.7546124172503257,-0.032423416269902666,-0.21690201984226862
56.659999999999954,-2.9307382448969963,-0.06369443822410481,-0.1887357646292276
56.66999999999995,-2.0923708277906456,-0.01564127906716146,-0.18294182707923953
56.680000000000014,-0.6358154465332829,-0.004578504539468091,-0.15621131856666873
56.69,0.09274564047836942,-0.004948010474467803,-0.18215168778558075
56.699999999999996,0.4322156117811214,0.022540184913313683,-0.1416694254103427
56.709999999999965,0.9122776062976583,-0.007673060344703093,-0.17510268973834545
56.72000000000002,1.0970611311770644,0.057335031828535644,-0.15245036012950475
56.72999999999999,1.052335091119424,0.028140838245137384,-0.15515492374979062
56.74,0.6471238241424687,0.032724281658756856,-0.1827866764733918
56.749999999999964,0.1762597523282792,0.0207721386985618,-0.1685230413668463
56.760000000000026,-0.13771525275099325,0.019320025582573393,-0.15025416625775959
56.77000000000003,-0.36959509197046436,0.018763570770860393,-0.15307825384933704
56.77999999999996,-0.36675179943510094,-0.002659593389906485,-0.18088901199566934
56.79,-0.2181310572525954,-0.01312193876212606,-0.17598553397204475
56.8,-0.16737666637225823,-0.0098755745632804,-0.19178168521563368
56.809999999999974,-0.1387378131004909,0.015475112632673394,-0.16163447154917143
56.81999999999995,-0.1229543796473715,-0.02219837396191679,-0.18192202336487479
56.829999999999984,-0.0677064393049507,0.019556449299405084,-0.16154824921351618
56.840000000000025,-0.11425713503786268,0.018893315354459383,-0.21143112871844702
56.85000000000001,-0.08909591172184805,0.014494294748084693,-0.18982911272153305
