Time (s),Acceleration x (m/s^2),Acceleration y (m/s^2),Acceleration z (m/s^2)
23.529999999999994,-0.030314423668544154,-0.009209072831430005,-0.14392262300301523
23.539999999999996,0.0029327757943205246,0.001591108081973702,-0.12964244924620547
23.55,0.0005723590505743905,0.0157308866260013,-0.11040563214416871
23.56,-0.014114920324868527,0.015397040504973399,-0.13238672155251915
23.569999999999997,-0.004825088791634107,0.01379877233534351,-0.13012731052236667
23.57999999999999,0.0018502382302386811,-0.000376350023536597,-0.1109326339876692
23.589999999999993,-0.0035512590616130955,0.010328763852184397,-0.12294259637987251
23.6,-0.019898930995714176,0.0018992144433299042,-0.1307571814591689
23.610000000000003,0.008223939127439657,-0.002034873331475698,-0.12858887465304944
23.62,-0.01728522069709629,-0.002695765704604491,-0.11723463088238743
23.629999999999995,0.00393104351736573,0.0028200228938218036,-0.143208692446134
23.639999999999993,0.009715426322147988,0.0109527542777851,-0.11971787884201705
23.649999999999984,0.009278237943635189,0.0126449848792237,-0.11461400297286443
23.659999999999997,0.015241100022647622,0.010114341083068204,-0.1329759067423732
23.669999999999987,-0.0027281419879948833,0.001640526203063097,-0.14426913624866347
23.68,-0.017733305620362426,0.0190422464076114,-0.1308108253579907
23.689999999999994,0.0012278242633768797,-0.0019185061404221092,-0.13777956973599145
23.7,-0.01649789466774459,-0.013061780271194106,-0.13661982011684273
23.70999999999999,-0.005017643395494775,0.0035435521790052964,-0.14350972623757038
23.719999999999988,-0.018711793608551252,-0.0024575536079289926,-0.13453490863695375
23.729999999999983,0.0178808897832427,0.002560268017984102,-0.13065455875419077
23.739999999999984,-0.011928977257696871,0.02175573093332909,-0.12058599125964331
23.750000000000004,-0.011698554145063713,0.0057911118646422986,-0.1597317893746551
23.76,0.00757006608336134,0.01450804966424009,-0.1486956310538273
23.769999999999996,-0.005491515104366009,-0.0002811340530093995,-0.13052248391205434
23.779999999999983,-0.007947474545537696,0.0022493942574752985,-0.14478768628705338
23.789999999999996,-0.007329705686909455,0.017846271712945998,-0.14374142485260843
23.799999999999994,-0.006378021597511605,0.0167753323742349,-0.12133629376398396
23.809999999999988,0.0012484000677935392,0.006331083075141394,-0.1366351758012496
23.820000000000004,-0.01038687255754322,0.011105902156281598,-0.16125141255407502
23.83,-0.028096437222719112,0.004946390500431303,-0.17288073917770852
23.84,-0.01418691107077317,0.004121706371160806,-0.15929053816074049
23.849999999999994,0.006194621089593404,0.0002578845608524992,-0.13748595177780987
23.85999999999999,-0.009659940437472326,0.011567944401950693,-0.1590551568152074
23.86999999999999,0.0027218476649057202,0.004916962879836196,-0.1501181516398802
23.88,0.013121442196463912,0.00832610302961229,-0.1616143069981046
23.88999999999999,-0.0044022380219925295,0.0015444199705866904,-0.17059480114241973
23.900000000000006,-0.019890618592894916,-0.004295274317575697,-0.17557876368168307
23.909999999999997,-0.013185059749285306,0.0022265297420452994,-0.1629243332566169
23.919999999999998,-0.021377172736402255,0.019257132470672206,-0.15788193024650687
23.929999999999993,0.0009663577911525662,0.016730515257967107,-0.15256327963458033
23.939999999999987,-0.01446475796000599,0.028612628041287495,-0.15779698909107445
23.94999999999999,-0.01903723859960357,0.007126465553954695,-0.16224396881191228
23.959999999999994,0.009091559664286207,0.010175672621685599,-0.17321307703238148
23.969999999999988,0.11007934223670526,0.005706137280684594,-0.17153659917962613
23.979999999999993,0.21434703532556468,0.005540025387460494,-0.19114194110019767
23.98999999999999,0.3037117537114428,0.008390482518196902,-0.18442611479820292
24.0,0.2210581751127324,0.016784005094336606,-0.15131895053694855
24.00999999999999,0.1072653807030952,0.008918959710915294,-0.1732250040688366
24.01999999999999,-0.03882318898809259,0.014505476998575496,-0.19291608629409596
24.029999999999998,-0.07692040765907093,0.002561348735107905,-0.15887393828113466
24.039999999999996,-0.06516348950682976,0.0051922049272421,-0.18223536691170597
24.049999999999997,-0.020204888430721765,0.0028030388482737046,-0.16963309690946804
24.05999999999999,-0.056358298436184194,0.014788077535553504,-0.18794280745388817
24.06999999999999,-0.13789176459843147,0.005369218726236801,-0.17046364502015615
24.07999999999999,-0.22948844336793553,0.0048572889657501,-0.17986977938464507
24.089999999999993,-0.23461262358600232,-0.0003983169015136983,-0.18955094173023557
24.099999999999994,-0.23836469738530658,0.00350536012120309,-0.1922741868375032
24.110000000000003,-0.19386930187134385,-0.007269540979637308,-0.18340698598382127
24.119999999999997,-0.22019293385817965,0.001581002419161701,-0.2054568645348012
24.129999999999985,-0.27477741408564554,-0.0006816927608976082,-0.19871840960281345
24.139999999999997,-0.32757672959428014,-0.003239468934258504,-0.17503360650964056
24.14999999999998,-0.285215608639992,0.0148118110685894,-0.1841751507208417
24.159999999999993,-0.22237840772239478,0.0077183853316687935,-0.1789869702488786
24.169999999999984,-0.14020432406618952,-0.007429478670296098,-0.19891987064249872
24.18,-0.06891448615648624,0.005123489969834199,-0.19934795143709025
24.190000000000005,-0.03772220485505325,-0.004423565211105503,-0.17054840657403866
24.2,-0.05961380802006144,-4.543910188720192e-05,-0.16602501456965674
24.209999999999994,-0.0851784018278272,0.0022563770499582983,-0.19476093250707438
24.219999999999988,-0.08045018293414474,0.013983068409492103,-0.20058556926223609
24.229999999999986,0.031825710749958006,0.0042541554962991,-0.17370929584272576
24.23999999999999,0.07873493452244266,0.006305242837069699,-0.2030410164005214
24.250000000000004,0.11446878097239967,0.010551497635797196,-0.1980358594108673
24.26,0.10615231734296109,0.001968711955386399,-0.19685504403861415
24.26999999999999,0.16395416431543683,0.0026275697375151975,-0.17865432294059677
24.28,0.21906367285003117,0.016542680856685504,-0.1807184554116312
24.28999999999999,0.30788107374740525,0.011731343923905289,-0.1861654834847636
24.29999999999999,0.35984129967074363,0.005342395104181001,-0.179606269326186
24.309999999999988,0.4233361350787966,0.016677032416892303,-0.1890584833372593
24.319999999999993,0.41339812161784323,0.028284899527063413,-0.20686661529160463
24.32999999999999,0.48497497495324476,0.015199610067093002,-0.19035665953895553
24.339999999999993,0.4422176515721769,0.015123344781509299,-0.1841452549210376
24.34999999999999,0.4333419986099328,0.007032661064976195,-0.19351506156294954
24.360000000000003,0.44280987938262095,0.023257291244624605,-0.17282516861759994
24.369999999999997,0.45381580645547126,0.003488996625683198,-0.18556940280330178
24.379999999999985,0.4848089703180195,0.02532811067341809,-0.17630797630923814
24.389999999999997,0.38088428039452926,-0.00010830525998220154,-0.19250646657133427
24.39999999999999,0.15200238781076758,0.008755007137906496,-0.20135311913608345
24.409999999999997,0.004425486904365949,0.014816342301548005,-0.19144150995947215
24.419999999999987,-0.04258547331978352,0.005120330464005805,-0.1673149271794129
24.429999999999993,0.006947579571380796,0.009745303587840199,-0.19697068203251522
24.43999999999999,0.06613187775889597,-0.0029802618231561002,-0.18685477278710869
24.449999999999996,0.014259884357620625,-0.013436268491586092,-0.18222306621858497
24.45999999999999,-0.10874193895740664,-0.003011410470555194,-0.19767925247541412
24.469999999999995,-0.25292174166109677,-0.015565074643494105,-0.20292112870165643
24.479999999999993,-0.25494193648720276,0.012816274771431903,-0.19402799177106375
24.48999999999999,-0.2865398873755293,-0.004532324912287396,-0.1853426036697301
24.49999999999999,-0.34623780391414977,-0.005832729143166302,-0.1818459683416854
24.51,-0.4471831309403999,-0.013521881150128496,-0.20205240289983517
24.519999999999996,-0.5250723772413104,-0.0158117874157329,-0.2034549672143449
24.529999999999998,-0.5998971385023394,-0.015400574624569896,-0.19800087453942808
24.540000000000003,-0.6651586974433268,-0.027975300658367404,-0.21897251562092296
24.549999999999997,-0.6335920894542051,-0.0041986298685941946,-0.21916759766013583
24.55999999999999,-0.6940599911418932,-0.004903256509849993,-0.18695253587722582
24.569999999999993,-0.9234106957989134,-0.025998980253350387,-0.20142456051852795
24.58,-0.7513835644958807,0.0036811405435046947,-0.20829674562004127
24.59,-0.47378890748828123,-0.0102690403223787,-0.22082197992609393
24.6,-0.41854356881673294,-0.0224654644714225,-0.2205232092711926
24.610000000000003,-0.3014776937368879,-0.002712700880414505,-0.19758907681016294
24.619999999999994,-0.28758507279820017,-0.017740716835991793,-0.21605587064281698
24.629999999999992,-0.33017498335408674,-0.014628904941112497,-0.2303263171099539
24.639999999999997,-0.33135505161642254,-0.009743596789507591,-0.20242620587336166
24.649999999999995,-0.2422762179368537,0.004714509164852198,-0.20551629299521845
24.659999999999993,-0.20607068996675795,0.005038047827777599,-0.19894845622650778
24.669999999999995,-0.10187743049954434,-0.0204700905474157,-0.22439187195376048
24.68,-0.015162021185677488,-0.011202391351696895,-0.2029215327561852
24.689999999999998,0.07008274275957387,0.008029058225513194,-0.21843148192183212
24.7,0.14865720819821945,-0.0057186345619346995,-0.2203756588236771
24.70999999999998,0.1944461214235001,-0.004672175799536395,-0.1842342565603105
24.719999999999988,0.2558097628871098,0.013235944737269606,-0.1842124869476559
24.73,0.3642410691353845,0.021838205267962606,-0.17091264863907496
24.739999999999988,0.4731230378733863,0.005476090611552794,-0.21842279826549563
24.750000000000007,0.6190984306008505,0.029239921938215205,-0.2105301125393209
24.76,0.8538080410467774,0.011226717847628504,-0.17262408485722847
24.769999999999996,0.79952922660425,-0.00012333070827280765,-0.18952467430213266
24.77999999999999,0.7043280977361726,0.0057816025179394034,-0.18563082348790486
24.789999999999996,0.8267324389468461,0.0235942816307168,-0.18481647345887106
24.79999999999999,0.8885523927558929,0.007856528999367703,-0.19593496157949883
24.81,0.8736778539593452,0.013672903610817598,-0.19845369702190824
24.820000000000004,0.9081342212396524,0.027413284694977995,-0.18621380400614052
24.830000000000005,0.9170414765582602,0.02852735128977661,-0.20807233821812052
24.839999999999993,0.9188021509217762,-0.00523745400416811,-0.1875380745220442
24.85,1.0332687069900255,0.036949945493526294,-0.18852105954310758
24.860000000000007,0.8758372235291255,0.0208358714121048,-0.2002335956608106
24.869999999999994,0.49873439903271377,-0.023314023903769198,-0.17062005673199557
24.88,0.2929252652274593,0.02803863502975981,-0.17171915611132432
24.890000000000008,0.15032635981500414,0.006849173106710596,-0.20881839154786036
24.899999999999995,0.07612600877216044,-0.01378852260449149,-0.20993371233045083
24.90999999999999,0.08401495052155732,0.0011822081679816994,-0.16966669702387333
24.919999999999984,0.05685971678482786,0.0011833263870823956,-0.16819318258693436
24.92999999999999,0.0009794730980031408,-0.014367111944977895,-0.16141791420046098
24.939999999999998,-0.2141238449239327,0.0031644963071305048,-0.18677437974238015
24.949999999999996,-0.35696085137622285,-0.012904126415640293,-0.18350815867393785
24.959999999999994,-0.5530571546551086,0.0072171374475723015,-0.2228557752133642
24.969999999999995,-0.6277712769320947,-0.025503448051987895,-0.19710339786925407
24.979999999999997,-0.7741953254839381,-0.0107573899625292,-0.18437049825754634
24.989999999999984,-0.8948151910544869,-0.012790059400510497,-0.19671796004019984
24.999999999999996,-0.9634564350286144,-0.0150067472344605,-0.19975331377066405
25.01,-0.9719272357050907,-0.013836397123794204,-0.20966605001100677
25.019999999999992,-1.0121503866049244,-0.022431005012668905,-0.20614026380466258
25.029999999999998,-1.0958002635787158,-0.031219909712487996,-0.23372589827733437
25.039999999999996,-1.1324521057444654,-0.03467159963180691,-0.22508372667251755
25.049999999999997,-1.1576825899639418,-0.021378290424476597,-0.22902755798743019
25.05999999999999,-1.1433366315545197,-0.032306762181415496,-0.19934876506638682
25.069999999999993,-1.2627121409888835,-0.035971863054051395,-0.20511557254683707
25.08,-1.0095112627030416,-0.0036180483185743973,-0.2253920380728948
25.089999999999993,-0.5760372386366713,-0.010035158848563796,-0.21607833261111492
25.099999999999994,-0.3535220037002429,-0.016337585371678797,-0.21249959675693597
25.11,-0.3735623991633564,-0.024884216274999205,-0.22518884586654525
25.119999999999994,-0.41297624465193195,-0.012507304352341096,-0.2051480529697041
25.12999999999999,-0.32492602694980066,-0.020634860994435292,-0.20538083275697017
25.13999999999999,-0.2407162282474211,-0.0024456064821362974,-0.1774636653066352
25.149999999999995,-0.09487129590932857,0.0005574047871069996,-0.19086361399391535
25.16,-0.04563936523323975,0.0095682157566038,-0.19985000962673455
25.169999999999998,0.052473352289828266,-0.0107979254134265,-0.1872683956434468
25.179999999999993,0.17426889045038402,0.0009238805764226937,-0.19731641797343918
25.19,0.3587589526468111,0.0018748941875713016,-0.20713778350350034
25.19999999999999,0.46627796824758194,0.027108053423560412,-0.19767606575378185
25.209999999999994,0.5922334941534307,-0.003020946076369702,-0.16872308280734616
25.220000000000002,0.6428771576132019,0.030485536407142605,-0.1802876395001098
25.229999999999997,0.7221535816904843,0.005321706767009399,-0.1972767987109628
25.24,0.8413305285421953,0.0193318547440482,-0.19359465510595195
25.24999999999999,1.046787662668386,0.017715337077069394,-0.193601286886777
25.26,0.9773280270024577,0.0029801193833323965,-0.19732442819101667
25.26999999999999,0.9710735252361307,0.014095298688916801,-0.20418335591511044
25.279999999999998,1.1219390684022537,0.0155484185444468,-0.18756115059728928
25.289999999999985,1.086889526662456,0.0154163435126242,-0.17172937549041398
25.299999999999997,1.0420556678893267,0.012897540944226104,-0.1894615263170704
25.30999999999999,1.039889646064932,0.0178073520725164,-0.19923469376309513
25.320000000000004,1.0487544609857884,0.019642058009072802,-0.19308596800752414
25.32999999999999,0.9476168224974604,0.017354343256375193,-0.17678216261041205
25.339999999999986,0.9914204901137357,0.024567117960950298,-0.17282818044491532
25.35,0.9952513219367987,0.018153018010324904,-0.19141799039498286
25.360000000000007,0.6249499429955178,0.00018747736574389987,-0.19239443447070628
25.370000000000005,0.3020581212605553,0.0044200005390872005,-0.1709968213014831
25.379999999999995,0.09072670721815575,0.003254557338282209,-0.18365491724129407
25.39,0.09154405416945555,0.013000187589025507,-0.19417056079745637
25.399999999999988,0.019060957067669332,0.0026427020668111007,-0.17743437189637132
25.40999999999999,-0.052145165657223665,-0.018321205810964792,-0.17714825110858334
25.41999999999999,-0.09814860022663259,0.0119211419404607,-0.1541356561791762
25.429999999999993,-0.1522515249275167,-0.007366178551441893,-0.18117213683819033
25.44,-0.35714872920118146,-0.0141942097960753,-0.18423902601340233
25.449999999999992,-0.5440050144023792,0.0019713808915497945,-0.17582346322279524
25.459999999999994,-0.6216336993416155,0.004270214330146207,-0.20529714778425742
25.47,-0.6448978225519011,-0.014068044038142198,-0.19139682171457806
25.479999999999983,-0.7450102380205035,-0.04083279633464159,-0.18565441576334377
25.489999999999995,-0.9078507089617689,-0.023762889910613306,-0.18231888784465286
25.500000000000004,-0.9823134834989108,-0.016220844794319504,-0.2000323863241055
25.510000000000005,-1.012190529160129,-0.04142151708857719,-0.19867199624588774
25.51999999999999,-1.040790769001233,-0.0181430511805625,-0.1891916036572598
25.53,-1.084607998150301,-0.0412781297948355,-0.19856938056642381
25.539999999999996,-1.1038325720996827,-0.01756209346568859,-0.21273349734158142
25.550000000000004,-1.104182622893736,-0.015196599666711606,-0.21000294701399333
25.55999999999999,-1.1172038004851024,-0.0241154726954234,-0.20354655382668208
25.570000000000007,-1.2436723274268089,-0.0325906360696178,-0.20736345139104323
25.580000000000002,-1.0470220985803562,-0.0087440102583334,-0.1934527615139274
25.589999999999996,-0.6113331787497459,-0.015715591572939898,-0.20341734987832916
25.599999999999994,-0.34815074315730427,-0.02043153812547739,-0.19725504860465523
25.609999999999992,-0.3863824078961983,-0.0457634643196772,-0.21650344515756126
25.619999999999994,-0.40449427830616347,-0.002337240863246198,-0.19129598646910959
25.629999999999992,-0.3172353281615257,-0.0037377177800133003,-0.207516800255515
25.639999999999997,-0.20216127706945064,0.014935192276354392,-0.2004164427542544
25.649999999999995,-0.08725108673895457,-0.0018710816280722924,-0.2020668526999702
25.66000000000001,-0.03326765324698753,0.005630659153771896,-0.19782899506699192
25.669999999999995,0.06683893380301123,-0.007286376130412398,-0.18393966062297687
25.68,0.15662982907738046,0.006733339874626006,-0.2069954337177344
25.689999999999994,0.3290536273932281,0.006960556753822203,-0.20057665119348428
25.699999999999985,0.457371359252644,0.019084412576801806,-0.18294444052625586
25.71000000000002,0.5691307855494225,-0.0030206009940067008,-0.18050642160119446
25.72,0.6194553759808719,0.011100978578827204,-0.15587351119963153
25.73,0.7304563991856511,0.0114006802006871,-0.1701706444279092
25.739999999999988,0.8888209040414411,0.011286713826730707,-0.16631219150397114
25.750000000000007,1.0765924823562494,0.0213167483310228,-0.14831754939097122
25.76,0.9725113152986846,-0.008680996048169201,-0.15690524435654624
25.769999999999985,0.9491464391478756,0.0218015187627858,-0.15275594831734843
25.779999999999998,1.0860774979308725,0.012840651212660797,-0.13255007706505037
25.79,1.0579135283326921,0.015156653409195505,-0.11807436272265255
25.8,1.004337669695518,0.016768364896893092,-0.11690635605845269
25.809999999999988,1.0816045764672995,0.018178282454375503,-0.15464508215129474
25.81999999999999,1.1174841869005752,0.0318341565027121,-0.14279525194375794
25.82999999999999,1.0015689358829896,-0.021420632989154996,-0.10655956175493511
25.839999999999993,1.050536368290841,0.005246176742758304,-0.11988472112957947
25.849999999999998,0.9708385274468645,0.014964087594076405,-0.11536518338651049
25.860000000000007,0.598173850580644,-0.003573780822115591,-0.12366106544069515
25.870000000000008,0.26792136665435423,0.002904945911706391,-0.11155169900525905
25.879999999999995,0.16137950722189764,-0.009227296618085495,-0.1292299048452939
25.889999999999993,0.17712406352098956,0.008422685582824902,-0.11824779612320885
25.899999999999995,0.10255239738702603,-0.0061126452034332085,-0.11436453613924896
25.90999999999999,-0.025686343090633647,-0.0041932414542567905,-0.11964362710257431
25.919999999999995,-0.07728494469115263,0.015195369238476605,-0.10234715505219849
25.929999999999993,-0.1625495037204456,-0.015187458256484706,-0.09537221424725041
25.940000000000005,-0.3428504741063695,-0.012463204243638594,-0.12119985888011965
25.949999999999992,-0.4386878453474646,-0.009370166273686897,-0.10276266441385047
25.959999999999994,-0.5749996777524014,-0.013323161874169296,-0.1465436822999953
25.969999999999988,-0.6716233261474222,-0.0020947035871165982,-0.1228641903128264
25.979999999999993,-0.748284149992505,-0.0277315497739217,-0.13219964809152346
25.989999999999995,-0.8963425961110664,-0.01910188507986881,-0.12946606571465205
26.000000000000004,-0.9524310517120459,-0.029494651779397595,-0.14242417416829825
26.01000000000001,-1.000583789071106,-0.0267204726032221,-0.13355870361968608
26.019999999999996,-1.0507908108586665,-0.006057555334513401,-0.16925284526584242
26.029999999999998,-1.0742411132595553,-0.04580637446828809,-0.16038087202407367
26.03999999999999,-1.0953809007447073,-0.035445766649821984,-0.1544528808043875
26.04999999999999,-1.1246615156377036,-0.030723975478206402,-0.15029840797765948
26.060000000000002,-1.1048359774979648,-0.04003773403427001,-0.1620854688558775
26.070000000000004,-1.262098152448578,-0.0276821734320564,-0.16619488031620805
26.080000000000002,-1.0735459606474045,-0.0139291073816727,-0.16102823102930441
26.089999999999993,-0.6443432857613409,-0.005873941715340109,-0.15650926582489094
26.09999999999999,-0.32772703312361723,-0.015945418847669493,-0.14905181380699797
26.10999999999999,-0.38990365443971015,-0.027370874056115598,-0.1842192472315271
26.120000000000005,-0.40177478879646655,0.0014288358836881995,-0.16384271472574566
26.12999999999999,-0.34883111255027294,0.009020171372950204,-0.17410540709736916
26.139999999999997,-0.24190953398699186,-0.00019471624837550018,-0.1486427331065256
26.150000000000002,-0.10661278556280232,-0.005469648213193098,-0.16596601126113372
26.159999999999997,-0.016365900587662855,0.0087030134057523,-0.1534100250863922
26.169999999999998,0.06898248538226101,0.014674914742647606,-0.1747088433822787
26.179999999999982,0.14240049751291775,0.008534815035596293,-0.15769536972985848
26.189999999999994,0.3095446842063245,0.001704782075331496,-0.18628088443544505
26.2,0.45266108218743767,0.0284634969084834,-0.14257032998751815
26.21,0.5638203742569708,0.0016693908164561026,-0.12393558590041899
26.220000000000002,0.6228423147544123,0.009783236765659897,-0.15417089247996446
26.23,0.705861286811772,0.011574058590765404,-0.14075651487130825
26.240000000000002,0.8857348061075183,0.025072539633195202,-0.13481032542884372
26.24999999999999,1.066953409181204,0.0379279753292862,-0.15673044108931122
26.26,1.0124499738667696,-0.0082622221646568,-0.16164430530364318
26.26999999999999,0.946580918444529,0.0435647936513829,-0.15941449259599608
26.280000000000005,1.0672579586299191,0.013051036154281104,-0.16161457578054986
26.29,1.052481680454285,0.027262391525409203,-0.133147934865871
26.299999999999997,1.019354013128947,0.027198630293579204,-0.15916424114053873
26.30999999999999,0.9950646974540429,0.020425185795425512,-0.15030036792185547
26.319999999999993,1.0683526009448068,0.0204029623140488,-0.1508910230007061
26.330000000000002,0.992658172325066,0.015750142218490307,-0.150193573776646
26.339999999999993,1.0316998582233519,0.008721374623795604,-0.16541891981010262
26.349999999999998,1.0457556230309595,0.04437132434908061,-0.1393503163081553
26.360000000000014,0.6278645054640088,0.007238571125584294,-0.14177253718843716
26.37,0.2436736708368373,0.011258105195606804,-0.15197210139651793
26.37999999999999,0.09829522248413955,0.013079707672514505,-0.15443293403887498
26.38999999999999,0.12776471796456743,0.0009283253398118127,-0.14796532682339125
26.399999999999988,0.06505261360109207,-0.0178902681593766,-0.1740151404697048
26.41,-0.05715339399974861,-0.016208007404655594,-0.1475692076691274
26.419999999999998,-0.08884967045545149,0.016257062809227694,-0.15823608161236158
26.43,-0.13324835500161947,-0.016295854220814098,-0.15927537297438416
26.439999999999994,-0.30580542517186177,-0.007551386971185596,-0.14574718255303126
26.45,-0.49335460188159225,-0.004524337215560802,-0.16683973970220511
26.459999999999987,-0.5938258786438595,-0.003864066224187401,-0.17004051753932514
26.469999999999995,-0.6674303736748552,0.0010170215243494986,-0.16422302130080185
26.480000000000004,-0.7700432777488133,-0.0319184559249159,-0.1833513306591411
26.489999999999995,-0.9090194609567138,-0.01166689599205931,-0.17066287841204514
26.500000000000004,-0.9546176587048862,-0.032709205607981004,-0.16112549155171407
26.51,-0.962152329777666,-0.03870819553552271,-0.18465388041470526
26.519999999999996,-1.0129062851030608,-0.004020777123110799,-0.17328742494079183
26.529999999999998,-1.1148808338479639,-0.033448819288643294,-0.2271511305979192
26.54,-1.10047612608609,-0.035173286060164,-0.1906896290303381
26.55,-1.1240911403323368,-0.0195933449899635,-0.20246327156719277
26.55999999999999,-1.068283956445658,-0.0242232628046136,-0.21780872235280904
26.569999999999993,-1.20073696376817,-0.0493292168257909,-0.20175756416618384
26.579999999999995,-1.0775308561483186,-0.006512084098009204,-0.21301275436000233
26.589999999999993,-0.6422844608403714,-0.007835899440010003,-0.19265631814225204
26.599999999999977,-0.38559758459693266,-0.0218863408887455,-0.20958192549794186
26.609999999999992,-0.3897859018186084,-0.0035012117515938125,-0.19722379950176055
26.61999999999999,-0.38401680343192807,-0.011955796676758506,-0.1716457902638242
26.629999999999995,-0.30401313725021867,0.0015089009814209142,-0.22131676457314858
26.639999999999997,-0.24951023780979747,-0.01057384564532511,-0.18003482826778797
26.649999999999988,-0.11272101476105172,-0.019530609934543103,-0.19236819599607535
26.65999999999999,-0.011283175495555315,0.019135157143665905,-0.176634171604265
26.669999999999984,0.056578382457939114,0.004035555806983601,-0.1813839758081729
26.679999999999993,0.13485758227273723,-0.008912987045894404,-0.1859144000501934
26.69,0.3114285814803131,0.0016196602594904961,-0.19406908985631333
26.700000000000003,0.4559018652751567,0.017591662041023904,-0.1941923572794461
26.71,0.5715333205032566,0.012656335749020605,-0.1637124808065284
26.719999999999995,0.6047138027284603,0.0176366206562862,-0.18034242636538964
26.730000000000004,0.6963949684732036,0.018567415314833604,-0.17871962714213818
26.739999999999984,0.8922630028291474,0.0366509616633175,-0.18342728127862148
26.749999999999996,1.072980341620268,0.03311734044790679,-0.1761798342724428
26.76,1.0378412487085191,-0.002304162351312103,-0.19010648927311838
26.77,0.9312652981489679,0.04179183950923931,-0.16363082455976313
26.77999999999999,1.0400126014159692,-0.0010184860297215023,-0.1717461073298122
26.790000000000003,1.0599948273857436,0.0326613494678896,-0.17699353549613203
26.799999999999986,1.0290385389226038,0.012725621913850602,-0.17804991910531942
26.809999999999985,1.0117907792284733,0.0110880137597296,-0.16259042943946544
26.819999999999997,1.027536036977999,0.007403358493701796,-0.1615669440595172
26.830000000000005,0.9734500038609879,0.018876346957967898,-0.17739087129797526
26.84,1.0419920147103223,0.020394844490442005,-0.17189957166992867
26.849999999999994,1.0271852148743894,0.012094244670489898,-0.16121065709238908
26.860000000000003,0.6690545783648687,0.01362100465915871,-0.167855591003612
26.869999999999994,0.22447575358796532,0.007423029830567798,-0.15398650543349768
26.87999999999999,0.08877196481157099,0.010616723289292406,-0.17103425286253188
26.89,0.11684030246804927,0.0206297928208774,-0.16491688515954767
26.899999999999995,0.005047185010550407,-0.014371401668168103,-0.17757442535511242
26.909999999999997,-0.042262569115174106,0.016139236349812392,-0.17266032208023271
26.919999999999995,-0.06667760625569852,0.03132193102444301,-0.15070340245520464
26.92999999999999,-0.11408074061840583,-0.020523898919660895,-0.1697097624958781
26.939999999999998,-0.3398227559983395,-0.001881393049859104,-0.15802974388239555
26.94999999999999,-0.4907033839065788,-0.016434892927460597,-0.16304961833270842
26.95999999999999,-0.5944943303368705,0.0038616372739106986,-0.18248085401339798
26.97,-0.6883263768290507,-0.0173915330556236,-0.18102219381454598
26.980000000000008,-0.7638915981889671,-0.04351504349173951,-0.19358059806197758
26.989999999999995,-0.9216950494938779,-0.018107848644202902,-0.1846390706765424
26.99999999999999,-0.9652383107081656,-0.031221615427708394,-0.17719648723100287
27.009999999999994,-0.9622671789335461,-0.011237188866555904,-0.1792155596652974
27.019999999999985,-1.0368356916864254,-0.007878757668867503,-0.20255538036232976
27.03,-1.0767735364495,-0.0362469361558616,-0.22526781358136638
27.040000000000003,-1.1284655655637832,-0.020182486000307608,-0.19970058924577136
27.049999999999997,-1.1295552683915144,-0.029307439659870396,-0.21645173628449446
27.059999999999995,-1.1300707616050538,-0.027003115066374005,-0.20437150641415402
27.069999999999993,-1.2335136068752826,-0.03394674573708839,-0.21938672646862917
27.07999999999999,-1.0578653490488692,-0.013200748153583004,-0.19651303280334925
27.089999999999975,-0.663685682866117,0.0007629876298058978,-0.1936825901272884
27.099999999999987,-0.37881905562015544,-0.03498248238708259,-0.20149850335128675
27.109999999999992,-0.40236038756905385,-0.014164157094894301,-0.21441265761091646
27.12,-0.3771537576212381,-0.017434691090490794,-0.1699473074721356
27.13,-0.31097498215363695,-0.008813873712578999,-0.20632918249118182
27.139999999999993,-0.22851148665196844,0.0234875266548076,-0.1708156451241866
27.149999999999988,-0.10903446825061677,-0.017817029258205996,-0.19707225203113501
27.159999999999986,-0.0047956649046583255,0.016310286807752105,-0.19228079305650192
27.169999999999987,0.09475812620568147,-0.007984725451426098,-0.17604986046409507
27.180000000000007,0.19665489379482345,-0.004973734553271104,-0.19880333857153387
27.19,0.2820420080742463,-0.0016163030037109,-0.21928800385326672
27.199999999999996,0.42816610239542047,0.011424350108279493,-0.15162176444387976
27.209999999999987,0.5483121015859884,0.009878084470688593,-0.15918469545034641
27.22,0.6116579327686182,-0.0053307404578377005,-0.18529631594223345
27.22999999999999,0.7436738834906362,0.027610729318042697,-0.1799015727165923
27.23999999999999,0.8834583393464701,0.0165921580489355,-0.18641316028778993
27.24999999999999,1.0947236968147038,0.0295998467422135,-0.17952248643371035
27.260000000000005,0.9737015400994508,0.001430136919250706,-0.18036102641395452
27.26999999999999,0.9528929608556389,0.0212428198705431,-0.17478512852683462
27.279999999999998,1.09195963925234,0.010647334813565796,-0.17781621176153561
27.28999999999999,1.0680378088329991,0.020346725466262996,-0.17549455823775292
27.29999999999999,1.02360892660754,0.014672376704917696,-0.18208099496523653
27.309999999999995,1.0058432124741938,0.031466772771838195,-0.17844099956131926
27.319999999999997,1.0572580698698768,0.0161234483196703,-0.1992570464053116
27.329999999999995,1.0014570736866502,0.0120908721130996,-0.1772302884545609
27.340000000000007,0.9996811986097561,0.0223223435176024,-0.1722543201081282
27.349999999999994,1.0456584459179494,0.014831990586560803,-0.17171917257386518
27.359999999999992,0.66775045206071,0.011537121587689497,-0.18949246263477348
27.369999999999987,0.24548448140356938,0.0184863619687488,-0.16100661367974664
27.37999999999999,0.07344637870364927,-0.001592339755873001,-0.16705690627408595
27.39,0.09840850697553549,0.0411130606018196,-0.1557038939528421
27.399999999999984,0.033118108170340776,-0.03146109907470089,-0.19457101764151086
27.409999999999997,-0.03169906242689701,-0.015854312098195694,-0.18440065611904283
27.419999999999987,-0.06151803283090941,0.020444869066094492,-0.1604756836950474
27.430000000000003,-0.16342333267621087,-0.010236310363065701,-0.18087359301979258
27.439999999999984,-0.371556280259717,0.0031196154000652974,-0.1669927502728229
27.449999999999992,-0.4840710878198376,-0.004564536712776797,-0.16373432374085192
27.459999999999994,-0.5897016778339926,-0.011891017977916599,-0.19416232510731396
27.469999999999995,-0.6808240845650682,-0.010868628534693099,-0.19507350316858316
27.479999999999993,-0.7564578033879388,-0.015051657989176997,-0.1860018505354539
27.48999999999999,-0.908009228820632,-0.0300629833835988,-0.1694455689378927
27.49999999999999,-0.9658763554579861,-0.0210316085009329,-0.17539855762953513
27.51,-0.9937564751150383,-0.022605911310966596,-0.1893170057739502
27.51999999999999,-1.0603380541201457,-0.03192961593139129,-0.1978515461010094
27.529999999999994,-1.0716117900357032,-0.025929879710631997,-0.1941271860762715
27.539999999999992,-1.162399331599004,-0.031243332953651996,-0.20212968499215406
27.549999999999994,-1.1561763914905607,-0.03068954558597489,-0.19452202544194552
27.55999999999999,-1.1220799866610511,-0.0300768177321474,-0.209862659349593
27.569999999999993,-1.2796638105611298,-0.0326030853232469,-0.2021984771866336
27.579999999999977,-1.0392094253090034,-0.03291343349201049,-0.19455484062245385
27.589999999999986,-0.6126609285884052,-0.01745109412213939,-0.20600243181350794
27.599999999999987,-0.3777962382370531,-0.0062349740870107995,-0.2092033376971785
27.61,-0.39484158918663004,-0.015529972424367187,-0.17460354066192874
27.62,-0.3579226119084232,-0.009743006704407503,-0.1888548635282728
27.629999999999995,-0.3279224085080962,-0.00955110345664741,-0.19222800625913916
27.63999999999999,-0.21990783074803724,-0.011915675069831103,-0.18188537233976587
27.64999999999998,-0.09653836302985724,-0.014031422840049997,-0.16864580069808296
27.659999999999986,-0.02774495368261281,0.014468787872015701,-0.19708718287805518
27.669999999999998,0.07500964209948985,-0.005711360002950795,-0.1921176150077213
27.679999999999996,0.1654818267277883,-0.008010274038597798,-0.1825988037938326
27.690000000000005,0.331980312218301,-0.012952192563585995,-0.17666039865919905
27.69999999999999,0.4882678363895491,0.03401997204993721,-0.16676081332339662
27.71,0.5470386367231906,-0.008216741878583499,-0.1534266894325272
27.71999999999998,0.6452519990259992,0.019032109348655096,-0.18415005796340042
27.729999999999993,0.7581459183173901,0.027426268903519496,-0.1796243390927864
27.73999999999999,0.9146127942883523,0.01974908645955929,-0.17696093049635983
27.749999999999993,1.129605402153485,0.0271182890435801,-0.18322270217456182
27.75999999999999,0.9992079452157848,-0.002024560153103804,-0.19379210452496876
27.76999999999999,1.0044296995722133,0.036366816352003395,-0.15120092319972073
27.779999999999987,1.079470054371286,0.0028360241979968996,-0.17960189611821434
27.79,1.0634861515900464,0.016755010099639703,-0.1879426525540143
27.799999999999997,1.0496420543383729,0.025698730581001795,-0.17268285286660137
27.80999999999999,1.0317965153367323,0.014215232377633193,-0.201416386896804
27.819999999999997,1.0476072685052626,0.01975657255857129,-0.18071177372237052
27.829999999999988,0.9581657319549776,0.017907199172391298,-0.15154592322195284
27.839999999999993,1.0387716173343773,0.026924514118271604,-0.16957968235877918
27.849999999999994,1.0230207564248692,0.019235199551777105,-0.16332633071629782
27.85999999999999,0.6749536562549441,0.0041627376962217,-0.1669755481269048
27.869999999999994,0.23380010571633825,0.013636028878318902,-0.16067600176898067
27.88,0.0440272637551283,-0.0020490904745643,-0.16882171595826856
27.889999999999986,0.07355141724789623,0.0028898227579760897,-0.1691851579346259
27.900000000000002,0.011112078368759451,-0.014667056980026802,-0.17177875341055665
27.90999999999999,-0.06642159507906409,-0.016069397704839394,-0.16585934505568986
27.919999999999995,-0.08830143746117108,0.0216886141370222,-0.1555510312715967
27.929999999999986,-0.12880754379158058,0.005047337742505803,-0.15947006693568586
27.939999999999998,-0.3383885342543572,-0.0322982265270798,-0.16123140764332272
27.95,-0.4868216382277527,-0.00040151067951350416,-0.1727419477937372
27.959999999999994,-0.6291318547311717,0.003206977111862498,-0.19568325363261424
27.970000000000002,-0.6808120629938744,-0.011545631000988899,-0.18112393613828937
27.979999999999993,-0.7939734148915212,-0.04376123249736389,-0.18594417185744888
27.989999999999988,-0.9137300113989422,-0.014227754861331203,-0.17482517858093002
27.99999999999999,-0.98136504950483,-0.015372339411322994,-0.1615634499339596
28.01,-0.9837313097328028,-0.043680164925321494,-0.1580382036035052
28.02,-1.0302693783267463,-0.013821262623295404,-0.17192513581674856
28.029999999999994,-1.0831453156079358,-0.055082609343415995,-0.1610237796556845
28.040000000000006,-1.1426914362349447,-0.0467872511950023,-0.16542866885362523
28.049999999999994,-1.1430168138159327,-0.02040954160490169,-0.15314761962205187
28.05999999999999,-1.1227125602114318,-0.02724793197997811,-0.1558547552500159
28.069999999999986,-1.2234435567200628,-0.04770664459883108,-0.13920467549773374
28.079999999999988,-1.0079273928594619,-0.014312163441314304,-0.1149597312326995
28.089999999999996,-0.6553969575453972,-0.0433606659289798,-0.12851934174717927
28.099999999999998,-0.3652064552843061,-0.010913649703095588,-0.11479327360149197
28.110000000000003,-0.3522655230115928,-0.036060334478358505,-0.1381548359711793
28.119999999999994,-0.34498730624555646,-0.022292819625883,-0.1167852364894417
28.129999999999995,-0.33925371571022767,-0.0129061444774703,-0.1340405459848406
28.139999999999976,-0.2793407299314216,-0.01160824030880049,-0.12434709412538976
28.149999999999988,-0.1229401607625876,0.0017051286778226977,-0.1083066903595031
28.159999999999993,-0.024883396160357216,-0.0080563080246326,-0.12113349137902725
28.169999999999995,0.09912902184505824,-0.004291480740337597,-0.11992625787081698
28.180000000000003,0.17836226544590755,-0.004417640007489404,-0.1304789625214676
28.189999999999994,0.34189790924085706,-0.0217415759550805,-0.12073491286703436
28.199999999999996,0.5016766364974767,0.0240972422447509,-0.09830497104566437
28.209999999999987,0.5680211436534658,-0.016038237818664494,-0.09683467232846747
28.219999999999988,0.6284744996270063,0.010764290975179799,-0.09922340865767061
28.229999999999993,0.7691413358772923,0.008110436184209702,-0.13867293054127225
28.239999999999995,0.9148005438547757,0.012787981649371206,-0.12057555772456913
28.250000000000004,1.071805634907607,0.028656792520398107,-0.11354952945230908
28.26,0.9668826613803843,-0.0152351529541505,-0.11760561183357306
28.26999999999999,0.9962914279081221,0.0582573908699755,-0.11440983709285375
28.279999999999987,1.0878115456344308,0.004783262807293095,-0.11472194324211843
28.29000000000001,1.065556808583884,0.025301253486832,-0.12636786427195734
28.299999999999997,1.0615170641013083,0.031032610039407202,-0.12743570001153545
28.310000000000002,1.055463638024987,0.022078208475680792,-0.14456902176835193
28.320000000000007,1.0853028023997102,0.044970936700083494,-0.12263348619916559
28.329999999999995,0.9498837234180387,0.016286416549935404,-0.11064040875952252
28.339999999999993,1.0549271096028567,0.015437392653467203,-0.0918845300683298
28.349999999999984,1.0302352641766201,0.030665235773821194,-0.104390383481908
28.35999999999999,0.6608322175333443,0.004780678989413605,-0.12382527301757001
28.369999999999997,0.2791390307206704,0.0289330605444166,-0.12250081509340152
28.379999999999995,0.07343735566097787,0.0107089203881397,-0.12621145894742186
28.389999999999997,0.032447233778368306,0.017638505565965003,-0.12050254947931428
28.399999999999988,0.022312160867330275,-0.025734148991967496,-0.11212950134760205
28.409999999999997,-0.00865075704199449,-0.009240310414353995,-0.11195643994429991
28.419999999999987,-0.03597338701490985,0.03413976434825668,-0.11484634115234649
28.42999999999999,-0.140183874672985,-0.009525222546386198,-0.12125101611353926
28.440000000000005,-0.3362928772863712,-0.007456448583887004,-0.12455333578922648
28.45,-0.5025332862897324,0.015364143407407703,-0.12685358206432093
28.459999999999997,-0.6545900156630763,-0.024008653866497,-0.1576022239933807
28.46999999999999,-0.6767334361213262,-0.0065050035814032915,-0.13563316019806837
28.479999999999993,-0.7865073258776765,-0.03274265247878311,-0.15588553911704497
28.489999999999984,-0.8795151557582414,-0.01799126031076829,-0.1604142822528819
28.499999999999996,-0.9607903421324229,-0.019638995432548503,-0.1330948906937865
28.51,-0.9926924312994455,-0.030047333420893402,-0.1535845137908003
28.519999999999996,-1.072475697675444,-0.0072244804528317046,-0.17323741520185712
28.52999999999999,-1.0603120442441063,-0.03273783240231651,-0.1667270208454739
28.54,-1.1220053604894606,-0.0401915594220507,-0.16449099876161913
28.549999999999997,-1.1005656547179865,-0.022855748442678094,-0.1804054667454705
28.559999999999988,-1.1660789604799673,-0.03726762510705289,-0.1837196942776509
28.569999999999993,-1.2983021011318263,-0.041214406658347705,-0.18608391714718867
28.579999999999988,-0.955064323135306,-0.00829728948271231,-0.1600257499802146
28.589999999999996,-0.5615632784259098,-0.009077710062301386,-0.16368388687113597
28.599999999999998,-0.342611890848037,-0.0278498987497988,-0.1809929092636462
28.60999999999999,-0.3610255907487665,-0.0060508980009035,-0.17702721449308956
28.619999999999994,-0.3602927532896163,-0.007159424978376796,-0.1646188439808914
28.62999999999998,-0.326731531462141,-0.018628181449913198,-0.17222543343751678
28.639999999999986,-0.23039790416354766,0.011175747467354101,-0.15064112910217797
28.650000000000002,-0.09429930010024792,-0.012925804672062904,-0.1847538458353275
28.66,0.02565065766651671,0.014521236753776803,-0.16571726015890212
28.669999999999998,0.0816043001495525,-0.005390930826378692,-0.15358070769312518
28.679999999999993,0.1869275113349958,-0.004214792826442297,-0.16875361499127614
28.69,0.3589233935711809,0.017482859475135105,-0.1507154533974347
28.69999999999998,0.48327185953785723,0.006833366620431904,-0.15974160519148387
28.709999999999987,0.5462546200104497,0.011151051623366198,-0.14789133983451921
28.719999999999988,0.6243928929643398,0.017346775069986803,-0.1607657870788837
28.73,0.7988442264607254,0.018944737330893403,-0.17912305046734045
28.739999999999988,0.9603719612871748,0.019792965061278697,-0.14808553367505062
28.749999999999993,1.1238661411527169,0.0320619630706921,-0.16037318071338835
28.75999999999999,0.9721915027236204,0.015693061126514102,-0.13900052187768788
28.769999999999985,0.9905956633439831,0.048816390937157686,-0.14509853949464097
28.779999999999998,1.0549304171843734,0.008285613693205594,-0.15891840079492767
28.790000000000006,1.0455746551100429,0.0482475430506313,-0.15892146419469294
28.800000000000008,1.0893729505621348,0.02344497286162219,-0.16014611016041536
28.809999999999995,1.1065975037911817,0.011320587154019507,-0.13857803992877113
28.819999999999997,1.0317091392099915,0.022300052972279095,-0.14366842908436336
28.829999999999984,0.9932476654280622,0.021216717886875004,-0.152719856636506
28.83999999999999,1.0411664816138477,0.026537844022669593,-0.15191315079580117
28.849999999999987,0.9646153332937835,0.013079841188289601,-0.1513686740348739
28.859999999999992,0.5829551433977667,-0.001157999147402302,-0.15413842801838207
28.870000000000005,0.2026675318364377,0.023952908457371,-0.16144722019289676
28.880000000000003,0.04555791231225447,-0.00037149421089730184,-0.16605650934705682
28.88999999999999,0.061015689353455096,0.017638906499541005,-0.15398480392076916
28.900000000000002,-0.023149940855030686,-0.03047605200076519,-0.17856306820159754
28.909999999999982,-0.02795495023029814,-0.014316550284813497,-0.15448509347099715
28.919999999999998,-0.0799297097122197,0.026294623119761596,-0.1643052421512745
28.930000000000007,-0.2001117678678068,-0.016045339467392793,-0.16546178767033287
28.940000000000005,-0.3433659128306858,9.861406885247876e-05,-0.16274541871796383
28.95,-0.4793921389816967,-0.02031942972468649,-0.1751141747861899
28.96,-0.6212287884170159,0.0027254675217471018,-0.18671015171850627
28.969999999999988,-0.6866559113780364,-0.0107843140852764,-0.14749884274061714
28.979999999999997,-0.8247963126157863,-0.026394534424047596,-0.17197567930682742
28.98999999999999,-0.9243347106468264,-0.0073507395421152,-0.16619038319246937
29.0,-0.9970692891249698,-0.0365135238224368,-0.17693548804660703
29.010000000000012,-1.0200013142612685,-0.014103735520713898,-0.1863272881274983
29.02,-1.0677662896677236,-0.0178417775869126,-0.19591771553747514
29.029999999999998,-1.095842811489752,-0.037172972550658885,-0.20982865915785598
29.04,-1.1522078835334308,-0.025728571962796307,-0.18022357025645452
29.049999999999994,-1.1226575780048922,-0.021109056828787498,-0.2066860291191967
29.05999999999999,-1.21137006633059,-0.023583330303769107,-0.22232705432038807
29.069999999999993,-1.2789198274654439,-0.0460099361773898,-0.19766543350006902
29.079999999999995,-0.9418650369074687,-0.013214319454905293,-0.18620753783804628
29.090000000000007,-0.5603146894685491,-0.02249139433489171,-0.20319944683268082
29.099999999999998,-0.3418572886373017,-0.019793561265336,-0.20974922083804864
29.109999999999992,-0.34061166619697475,-0.015623120927871501,-0.17993084463098497
29.119999999999994,-0.33612368029218564,-0.0191547361689158,-0.18014604839572035
29.129999999999992,-0.33441413599109265,-0.009133682279494503,-0.20106512125400516
29.14000000000001,-0.25864060422703494,-0.009458307070804908,-0.1847097293608171
29.150000000000002,-0.12732394651006587,0.002461434830514101,-0.15989581603348976
29.159999999999997,0.011391503156040867,0.0045712526645316975,-0.1949495375164576
29.16999999999999,0.11137724510311879,-0.0109672190988937,-0.19637591642998234
29.180000000000003,0.1993271897100801,0.015374525269600599,-0.19690637199544922
29.189999999999998,0.3726449520510747,0.0194281267717975,-0.17493402737204478
29.19999999999999,0.47256773710053984,0.009071136210957901,-0.1835571157311851
29.20999999999999,0.5482390393686115,-0.005236134726978402,-0.16570126284981532
29.22,0.6497518535981543,0.01316190010930721,-0.17619465152440456
29.230000000000004,0.7810976530314535,0.03080047728087949,-0.16630517042192644
29.239999999999984,0.9578579866459384,0.019337910799331202,-0.17495624984730757
29.249999999999993,1.0905927467714034,0.013911993795245596,-0.18237622841534093
29.26,0.9959087652405272,0.018677381995523403,-0.16259155746261908
29.269999999999996,0.989480337469452,0.016857611803861992,-0.15597557754878225
29.279999999999994,1.0632749128503232,0.013484027921066908,-0.18065687043251982
29.290000000000003,1.0604191351740286,0.0409932471144103,-0.17831435035618134
29.300000000000008,1.0597466063572478,0.0090570964961476,-0.18696275309097996
29.31,1.0572430712166514,0.026047419084832393,-0.16062487817081833
29.319999999999993,1.0813431420768627,0.015976851339175806,-0.16004044744134333
29.329999999999988,1.0167905858743072,0.021893619626964105,-0.16606885133939275
29.33999999999999,1.0541601528937383,0.027926273714308197,-0.14809605962535113
29.349999999999994,0.9650943807856135,0.014137079182765099,-0.13931823291025666
29.359999999999992,0.5569579023999232,-0.005462138578916595,-0.1586593415386152
29.370000000000005,0.18773947233492388,0.016653049040079002,-0.16672801805546247
29.37999999999999,0.05469367371949395,-0.004663395638028696,-0.19640946299111744
29.38999999999999,0.02890791915692339,0.017305166999566007,-0.1555876264836515
29.399999999999984,-0.028859386550084062,-0.013165838183601099,-0.1552574103670602
29.40999999999999,-0.04039178928579995,-0.006502298544349805,-0.1471508078882202
29.419999999999998,-0.0774720597299832,0.029347227337916303,-0.1587629760245351
29.429999999999996,-0.16367027220605146,-0.013528881304814094,-0.15658867894448683
29.44000000000001,-0.3881123714185286,-0.006392034996632897,-0.1494215676538409
29.449999999999992,-0.5282698550652364,-4.979770989586691e-06,-0.176439640965893
29.45999999999999,-0.6661206630468881,-0.021117409101781896,-0.16299900650824267
29.469999999999988,-0.7163057865509228,-0.021040046751944395,-0.16359298587249888
29.479999999999986,-0.8096428107580874,-0.023389891341999997,-0.17979017598373895
29.490000000000002,-0.9111436316592899,-0.029521041857497515,-0.16949459456872532
29.5,-0.994797800137283,-0.021208978335825995,-0.18755901363326805
29.51,-1.018536025375983,-0.0255044005054909,-0.18421419877627646
29.51999999999999,-1.0798023849950051,-0.026297168739601896,-0.2129845881682778
29.529999999999994,-1.102840435408416,-0.031638324609161494,-0.20384892465663632
29.539999999999985,-1.163205333261578,-0.024457378076361596,-0.19707306601798216
29.550000000000008,-1.1245860514843369,-0.027635324055262,-0.18933205110100187
29.55999999999999,-1.223171755247857,-0.03164985915497941,-0.20772694448672155
29.569999999999993,-1.2962727930449824,-0.029615097039755487,-0.21997319124242887
29.580000000000002,-0.8859018989931763,-0.004383558608569602,-0.18443671759905242
29.59,-0.5553450357901902,-0.014636637597442995,-0.21033707105624644
29.599999999999994,-0.3208693886357193,-0.0071987048279708015,-0.19822993873612255
29.60999999999998,-0.3209992255255813,-0.008203229666255004,-0.19131813074590323
29.619999999999994,-0.30389596787646367,-0.006554959021108401,-0.19815694715038354
29.63,-0.3476953166575711,-0.00885205886855241,-0.1986403075630218
29.639999999999997,-0.23995018869794618,-0.010071209480426495,-0.1676434419830697
29.64999999999999,-0.07394355245226797,-0.0042746411699608,-0.18562467449053005
29.659999999999997,-0.007759963809103137,-0.002428528666668699,-0.1856842222893961
29.670000000000005,0.09487473266234125,-0.019940159943292905,-0.20024076515577258
29.679999999999993,0.21616277999181963,-0.0024513611256077026,-0.157880162934967
29.69,0.35382440246675406,0.007416981879272997,-0.17055258500394335
29.69999999999999,0.4774625712316277,0.0323460318563689,-0.14628596810251573
29.710000000000004,0.5787957714262694,0.014163329005463004,-0.1416885726803019
29.71999999999999,0.6745121046558069,0.004086721807099193,-0.16088688958902223
29.72999999999999,0.8020123459013386,0.0209595338854752,-0.18018588663857957
29.739999999999988,0.9339094601726433,0.021041673400702312,-0.15784584402976756
29.74999999999999,1.0894876061790146,0.0226321166034209,-0.14607316295649522
29.76000000000001,0.9778398069748563,-0.002598423111089296,-0.12620804238676908
29.769999999999992,1.024392674057967,0.023542136883878503,-0.11829065084784503
29.780000000000005,1.0666795565232754,0.014379780889951696,-0.12785330889677451
29.79000000000001,1.0522679359291678,0.019969075768578995,-0.11375654193237097
29.799999999999997,1.0574357990119587,0.0170365236287086,-0.11274685987602161
29.809999999999985,1.0869480514794554,0.015044253881318205,-0.1315690504048814
29.819999999999993,1.0637111867120417,0.017197947039469596,-0.12757820415674567
29.829999999999988,0.9759557516707303,-0.003962910390661498,-0.09324277236412835
29.839999999999996,1.0847430401119238,0.016862683128510105,-0.10009134828615737
29.849999999999994,0.958992902434849,-0.0026140226148344027,-0.09267126674329147
29.85999999999999,0.5799005378700828,-0.003132768119032299,-0.1030398278032469
29.869999999999983,0.27464811279066775,0.022541313089675805,-0.08809847624313581
29.88,0.07826909119655337,-0.0105244280978005,-0.10878530792041144
29.88999999999998,0.07368013641107288,0.0107013932512334,-0.09611231926426678
29.899999999999988,-0.02560861833703591,-0.03717258321335161,-0.13530426037884805
29.910000000000004,-0.021931695146992926,-0.017910576288303105,-0.09395100225516008
29.919999999999995,-0.08314759765533448,0.016366131212864402,-0.08775031674052736
29.929999999999993,-0.20278886201970844,-0.005005682049223198,-0.11715933792004565
29.939999999999994,-0.34473146314614356,-0.022836716376041302,-0.08817303685667663
29.949999999999985,-0.4967212959698063,-0.007322340125833396,-0.1227179521932351
29.96,-0.6590303045069951,-0.00773852201920199,-0.12569692946059402
29.97,-0.651032014049965,-0.009766864165359407,-0.11567840439094118
29.979999999999993,-0.8121673248945317,-0.03645231661460229,-0.10606181959184126
29.98999999999999,-0.9476949575448864,-0.04200823986684251,-0.11849677580441853
29.99999999999999,-0.9705072907675253,-0.0159057106347126,-0.10685683088086928
30.009999999999998,-0.9621673469510649,-0.0353642155558965,-0.1252238029037561
30.01999999999999,-1.0499310258745653,-0.030544429402638903,-0.13909606013492262
30.029999999999987,-1.0838202709519105,-0.0276544356954225,-0.14043566204852254
30.04,-1.163286926967645,-0.023294742324957905,-0.13685483269008816
30.04999999999999,-1.1364515522713146,-0.008571388822827607,-0.1254915644573942
30.06,-1.2309950419845412,-0.03903603856316058,-0.1371656370369306
30.07,-1.2828651018694255,-0.019998507193529306,-0.15259156798164464
30.079999999999984,-0.9270431755425419,0.005854232063535099,-0.1358239383333185
30.089999999999993,-0.5516049070798974,-0.016159305556813604,-0.15750133560651788
30.099999999999984,-0.36034332060903795,-0.016115145598849905,-0.1373704160682511
30.109999999999992,-0.34679481000838325,-0.013033648050726196,-0.12515433130453676
30.12,-0.3217219280833085,-0.003907765474955002,-0.16023615014126347
30.13,-0.3002081484795278,-0.012461979417904402,-0.13673930377888038
30.139999999999993,-0.2282333713264148,-0.015871351459545095,-0.13361662647291897
30.149999999999988,-0.10232445025859534,-0.0009277057076782052,-0.12545379729030232
30.159999999999997,-0.023162038315241877,0.0070836994922794955,-0.148451671362
30.16999999999999,0.11567745731922159,-0.0009674648958326042,-0.14062881895636667
30.180000000000003,0.20165542627463706,-0.006364894541340503,-0.1399323383771117
30.18999999999999,0.39470385102052935,0.017246583049879395,-0.11936008469659475
30.199999999999992,0.48066904824884943,0.0187550284077138,-0.16304396464831192
30.209999999999997,0.5560617019832679,-0.009221076700728602,-0.1274790342736378
30.21999999999999,0.6669973184931709,0.011818238516783196,-0.12184848239291957
30.229999999999986,0.7587024203584336,0.020515464904051702,-0.13866685012999366
30.239999999999988,0.9468951963717767,0.0185327830511554,-0.13135757743407822
30.25,1.1000562875064468,0.02563895959723479,-0.1399378583661965
30.26000000000001,0.99044319885748,0.001232244718578495,-0.14906212582608488
30.27,1.025247786712446,0.042016003278538494,-0.14606029273721174
30.279999999999998,1.0417468659581697,0.014308114686138204,-0.14606176443938965
30.290000000000003,1.061249038282897,0.0207759215718763,-0.14273025661196836
30.29999999999999,1.050671563219457,0.0351889886147768,-0.14861133487434358
30.309999999999988,1.079475660640255,0.02294956547877189,-0.16658806938604595
30.319999999999997,1.0597620011629614,0.0363796072707239,-0.1534137055022981
30.329999999999988,0.9726056576956127,0.0224013304140473,-0.12822770146659362
30.339999999999996,1.0199074465397877,0.025713400058559304,-0.11598954479732022
30.34999999999999,0.9385803016301217,0.018989330557016702,-0.11726719156064325
30.359999999999985,0.5889243154611087,0.00322700357158901,-0.11247970955923964
30.369999999999994,0.2145243253496456,0.020378090206209405,-0.12065940891127702
30.37999999999999,0.035561221997852645,0.0066524447692105065,-0.12158132946235445
30.389999999999993,0.03342400623700161,0.008410128222176098,-0.10710137843162273
30.400000000000002,-0.03231687863328739,-0.021928212114774394,-0.11437481627303524
30.410000000000004,-0.02033425040007116,-0.0019721951079735957,-0.09851873684429897
30.419999999999998,-0.061628031365939896,0.0197925176596191,-0.0904033862322704
30.429999999999993,-0.15239588735181792,-0.02692512376991569,-0.08931709773939177
30.439999999999994,-0.3740753634945743,-0.024626692926495303,-0.0767483026610953
30.449999999999992,-0.4866760546959819,-0.022982564422888,-0.057439918031037936
30.46,-0.645056318202665,-0.024432067653151996,-0.1121385007340023
30.470000000000006,-0.682681082943194,-0.021320489852658903,-0.1025407843186756
30.480000000000004,-0.7843212691981604,-0.04263159684763829,-0.09796016975506698
30.490000000000002,-0.9096248931602045,-0.02654018167784531,-0.10780697523049242
30.499999999999996,-0.975603903796925,-0.0186766253998864,-0.09880667053129562
30.509999999999994,-0.9842185244443901,-0.03156873905115531,-0.0922841094552795
30.519999999999992,-1.0292414684734317,-0.027492555899416297,-0.11238416148287042
30.52999999999999,-1.0960486387376525,-0.028345911338522996,-0.12489073333409743
30.539999999999996,-1.1947911534353675,-0.0399477665423442,-0.12704561835202755
30.55,-1.1636405995156704,-0.017611513694748993,-0.13590495738222683
30.560000000000006,-1.1861389819905903,-0.0336673284576352,-0.12726350225410324
30.569999999999993,-1.2493321052613668,-0.0335862748745289,-0.1123584279715138
30.579999999999984,-0.9752307111291211,-0.011294402407489005,-0.09977710343786395
30.589999999999982,-0.5883589457547536,-0.017845591022197304,-0.1077278902591369
30.59999999999999,-0.3417600723026924,-0.007123139710055196,-0.12555189457474666
30.610000000000007,-0.3331851939587679,-0.023290177228949206,-0.14119929186319327
30.619999999999997,-0.32843307370819536,-0.010655007686578002,-0.13014091048729326
30.63,-0.35505328096105376,0.0023254579515726956,-0.12552244178240174
30.639999999999986,-0.26033348972035825,0.002532614546642803,-0.11096241167816362
30.65,-0.11761797001425336,-0.009725227695455701,-0.13105081631876678
30.659999999999993,0.004323437794513498,-0.0026213912277763003,-0.13659718562512718
30.669999999999995,0.08455733308700145,-0.004373205084223604,-0.10886502574467748
30.679999999999993,0.1721545204906036,0.006173359602129702,-0.13465385320810563
30.690000000000005,0.2957614109844268,0.01550983205548041,-0.14102276008975212
30.699999999999992,0.44234676008764595,0.013779896355968501,-0.11302247950745403
30.709999999999994,0.5556689348863899,-0.0016470031987583986,-0.08924250602998167
30.719999999999988,0.6681820765165374,0.020939912401328295,-0.12614984710893118
30.73,0.7595607716721401,0.018872222535792404,-0.13170934702330273
30.740000000000002,0.9558109670667724,0.024637488858435086,-0.10867590842444401
30.749999999999996,1.0606077680658075,0.027739469279558893,-0.11907477950753667
30.76,0.9522936375908956,0.020471774428393603,-0.1448178928653089
30.77,1.0015064125053008,0.0378587533130517,-0.1477371338851414
30.779999999999998,1.0487013415164306,0.005987196951301104,-0.13405243742343778
30.789999999999992,0.9543422272814609,0.047498785986319,-0.1192576203255723
30.799999999999997,1.192062251155667,0.034466095411514394,-0.12551394438544242
30.81,1.10983800721215,0.015557395934944592,-0.12486374389176191
30.819999999999993,1.020196693787771,0.012097061751599499,-0.1342791679542524
30.829999999999988,0.9651305586122098,0.014616345862404003,-0.12249709531624346
30.839999999999993,1.0160590062293815,0.0066053134330808045,-0.1501558663127472
30.849999999999987,0.9711786516470925,0.0288047830739061,-0.12598379312103558
30.859999999999996,0.608459457151616,-0.002110409830971395,-0.11512656781986598
30.86999999999999,0.24630441479145,0.030010914561634988,-0.12953804313569012
30.87999999999999,0.06139716337457387,0.004507411791842292,-0.12652037379833705
30.890000000000004,0.039214851936488763,0.012751098380959997,-0.12052533822599966
30.900000000000002,-0.025769185819152544,-0.012448977281731506,-0.1197716999799083
30.909999999999997,-0.013763679326630116,-0.007307325190743598,-0.15206746428412063
30.91999999999999,-0.04184035806822507,0.02811563073003579,-0.117573792360368
30.929999999999986,-0.1639253403189897,-0.003526161579806698,-0.13599644581598877
30.939999999999998,-0.33373946046576947,-0.017074098838477804,-0.12139506206985266
30.949999999999996,-0.5023289214470396,0.013977469354427598,-0.1153272090763078
30.96,-0.6597338409910568,-0.011464137786599105,-0.17319735086237578
30.970000000000002,-0.6646956807815432,-0.0085311900383903,-0.15314160704504004
30.98,-0.7828765450688507,-0.0182964528928363,-0.1684225781129751
30.989999999999988,-0.8840557800615452,-0.010002935350381794,-0.16264198375206218
30.99999999999999,-0.9770057157751786,-0.021264389040175,-0.154082902720335
31.009999999999977,-0.961939481917549,-0.03469736240404239,-0.1686602808997785
31.019999999999996,-0.9989111366135918,-0.022000011604528795,-0.15774175335923685
31.02999999999999,-1.1212420621718542,-0.025413847093438698,-0.18943796908955396
31.039999999999992,-1.15596142456453,-0.02891729957844909,-0.19494952311445926
31.050000000000004,-1.1408158667006887,-0.029607497676058005,-0.1735694841211852
31.06,-1.180798739666754,-0.034403716827454,-0.19678667111358422
31.069999999999997,-1.2892218743219417,-0.029945919617160706,-0.18810926128982922
31.07999999999998,-0.9468846495465576,-0.006183218662838987,-0.16607751786669292
31.089999999999993,-0.6103485050980015,-0.0008692967545741007,-0.1537855167677437
31.1,-0.3839060417476162,-0.019259505043102497,-0.17525098463688144
31.110000000000003,-0.33433862094037603,-0.006170415943559597,-0.18324819296765207
31.12,-0.3311480473283964,-0.005578452010846104,-0.15533588496721906
31.12999999999999,-0.35433723317489685,-0.006279365753873296,-0.18313568876115263
31.140000000000004,-0.23936173879419506,-0.002277071171728906,-0.16763668466166756
31.149999999999988,-0.11500632549240485,-0.019392964776494492,-0.18444024168534162
31.159999999999997,0.01795804298484006,-0.008974601169531497,-0.170388352923061
31.16999999999999,0.10044606367000732,0.0030805461979135982,-0.1623176770723379
31.179999999999996,0.16972783954448578,0.001390460969749911,-0.1721006132902484
31.189999999999998,0.30062384456092134,0.007577513858297698,-0.1781085548853098
31.199999999999985,0.4233008249524838,0.0193394095261934,-0.16736948257098158
31.209999999999994,0.5527045659594528,-0.009682140967281105,-0.1510785555737979
31.22,0.6341306796871417,0.0177190343609097,-0.17296108018003883
31.230000000000004,0.7504190546657548,0.008325361880927286,-0.17998141864226114
31.239999999999995,0.8950348190354446,0.025857386113181797,-0.13879398279667166
31.250000000000007,1.0559583550786609,0.036353722617310895,-0.1616704842184371
31.26,0.9711699046248577,0.0020706065639733958,-0.18073048139277126
31.269999999999996,0.9849974515057911,0.0436146511989169,-0.1694366203139004
31.279999999999987,1.0552390163461731,0.010663716195912701,-0.17215084778246384
31.289999999999992,1.0679464504064355,0.03788398093705769,-0.14493302485970266
31.299999999999994,1.0652839042620343,0.013337959215084096,-0.1806927896698889
31.31,1.0397769878531233,0.040683788380868495,-0.17576343837472805
31.319999999999993,1.070141653483517,0.023333622586818994,-0.15215474864502881
31.33,1.0024177376709156,0.0057673172342033955,-0.16865420307433168
31.339999999999986,1.0011417368059983,0.0280853582232931,-0.15841716798358565
31.349999999999994,0.9933348518583237,0.006067347129388001,-0.15959000832611003
31.35999999999999,0.6391768585812723,-0.0068797830028728985,-0.1583626002432353
31.37,0.2608929740051524,0.0262815518749128,-0.1595287004735978
31.379999999999995,0.05173097885077857,-0.0358032199838958,-0.174000387906897
31.39,0.052919297028850475,0.003967561614391497,-0.155785904074339
31.39999999999999,0.0206612557032766,-0.0221745665340339,-0.16309543541881172
31.409999999999997,-0.015069409742410196,-0.01342560727626089,-0.18444590563085858
31.419999999999995,-0.07635965347235121,0.030462125298640796,-0.1691333546576739
31.429999999999993,-0.18444987058062823,0.0013757428530557004,-0.17295091085752334
31.440000000000005,-0.3597486694023311,-0.018985568096297402,-0.1619938661999976
31.45,-0.4817728039930824,0.00048246740603270007,-0.14168931810351737
31.459999999999997,-0.6203713025505566,0.0054300849102436885,-0.19794543551912147
31.470000000000006,-0.682480428547416,0.0014104645877456995,-0.16219625702948823
31.479999999999993,-0.7951807755584133,-0.023029801884643295,-0.17019921732117635
31.48999999999999,-0.9023501477582321,-0.01850944224584911,-0.1930733712448938
31.49999999999999,-0.9813276364305475,-0.028854632937310894,-0.18534030201532536
31.509999999999998,-0.9667378760444743,-0.027368891419135895,-0.17204184785353646
31.519999999999996,-1.0231043358946146,-0.0053892990061077005,-0.185405489723081
31.52999999999999,-1.0685420581096552,-0.036935747309402696,-0.17870494844626603
31.540000000000003,-1.1213110397345907,-0.0384668796293064,-0.16096422252621836
31.549999999999997,-1.1652434718943825,-0.027136881391067003,-0.15108428164146137
31.55999999999999,-1.170960051818262,-0.030731409594931702,-0.1597599230684152
31.569999999999986,-1.258872659779275,-0.038470569209884994,-0.16446624469888602
31.58,-1.0446296729474307,-0.0225138866549829,-0.16028180070131487
31.59,-0.6416233174400772,-0.025446722066419607,-0.14124916875829197
31.599999999999987,-0.36156077750228666,-0.01931278975015771,-0.13031678302960353
31.609999999999996,-0.28854353400256505,-0.032232365891840704,-0.1099521204567327
31.619999999999997,-0.3213986441101238,-0.014842772000390097,-0.13236680339053658
31.630000000000003,-0.3546442593161759,-0.026333233813181707,-0.1503012606353027
31.639999999999997,-0.3072622164221321,-0.023173333320235297,-0.13520972437337112
31.650000000000002,-0.15119761945850205,-0.023947804351042098,-0.14361648477903252
31.65999999999999,0.002777022846017483,-0.000877019355522199,-0.11080954734988196
31.669999999999998,0.11389729658857016,-0.0040792059188854,-0.1222068790834601
31.68,0.17642334740116808,0.003561310457390908,-0.1176889347046142
31.690000000000005,0.30446825988285037,0.0020271660633889997,-0.09741478899175618
31.7,0.415142471447165,0.023282736145878995,-0.1338278955039207
31.71,0.503518745277223,0.006830699092952702,-0.10911654506391331
31.72000000000001,0.6464115992227016,0.005478859918017691,-0.1082849703785564
31.73,0.7538873227801121,0.028597772975974194,-0.12724927779322223
31.739999999999995,0.8890099939215311,0.02353555321047471,-0.0964294730823034
31.750000000000007,1.0670805860129466,0.0254571217794517,-0.11966810198195373
31.759999999999994,0.9884159254942352,0.004868452147539,-0.11509077710703794
31.76999999999999,0.9794603891796705,0.02546265031514011,-0.09633468786047489
31.779999999999983,1.056331210020499,-0.00010059188204230603,-0.13212654864253318
31.789999999999992,1.050073531896866,0.023957284599053993,-0.1440168497035099
31.799999999999997,1.0953738160677924,0.0287397675397416,-0.11843752584462337
31.80999999999999,1.023879422407596,0.0106150196376374,-0.12016462078675817
31.819999999999997,1.0288320513781117,0.017245309144260493,-0.1164587801586907
31.829999999999988,1.0370838872916277,0.0106526836353382,-0.10674712378606346
31.839999999999993,1.023592222631309,0.021755439159784302,-0.10958016457131478
31.849999999999987,0.9874119554289259,0.037576023586066196,-0.11932493373215657
31.85999999999999,0.7080469274758411,0.015437670668455791,-0.13497752216981831
31.87,0.31925113039978253,0.0216631435560284,-0.13316095135743358
31.879999999999995,0.08769653331213761,0.0066731550485100025,-0.14234526658678318
31.890000000000004,0.06550417880603006,0.0013177149442986035,-0.12827311217349652
31.89999999999999,0.021527228818192502,-0.002225802478997205,-0.1284704036916278
31.90999999999999,0.006198390368259813,-0.014362119871565207,-0.13664344826607183
31.91999999999999,-0.022792706967752287,0.015677359746892095,-0.1193253066014702
31.93,-0.15623698834685926,-0.006989531890174298,-0.13148911743301575
31.939999999999998,-0.3212663793560543,-0.021391424400966405,-0.13858552741792665
31.949999999999992,-0.4554139418457921,0.005285816479242393,-0.12746823266389262
31.959999999999994,-0.5990015490342129,-0.012434350614455608,-0.1426657091698596
31.96999999999999,-0.6709250964906481,-0.0057679896661759055,-0.12966154628408685
31.979999999999993,-0.7597118184871822,-0.027599323842277205,-0.14531350629548317
31.98999999999998,-0.8828803019499145,-0.011854450270474997,-0.16355058752675586
31.999999999999996,-0.9383646945961641,-0.01787223253525,-0.1546425060907911
32.00999999999999,-0.9852701943257254,-0.0186769791336663,-0.1545418586270138
32.02,-1.0159702787020333,-0.007879727782240097,-0.15661913921274173
32.03,-1.0735287038556236,-0.026736643062005908,-0.1446551261415661
32.03999999999999,-1.1025767313992938,-0.0274076474687258,-0.1548371956659947
32.04999999999999,-1.1490011082672227,-0.002914650749094503,-0.16145111647310026
32.05999999999999,-1.1358297120871532,-0.025316652276616097,-0.16684084477946878
32.07,-1.2021298591165654,-0.04369374716193461,-0.19329302834287623
32.08,-1.064744670333061,-0.016124039711909705,-0.14530146222368248
32.089999999999996,-0.7286691402861603,-0.018047255435105203,-0.16903915820014445
32.1,-0.37014312239347463,-0.0021001980303083966,-0.1761243494946751
32.109999999999985,-0.30658755501157947,-0.009848111626301895,-0.16093465217698916
32.11999999999999,-0.3360979560366333,-0.006628421425311897,-0.1701287446361584
32.129999999999995,-0.36020139123254163,-0.005153000131438901,-0.17561921777241596
32.14,-0.32528065461277955,-0.006757903554550095,-0.16843191627812126
32.15,-0.10902294631121028,-0.013007214775957503,-0.1801354531909982
32.16,0.0013572958674565865,0.005283293795774108,-0.1630363600742115
32.17,0.08324876894511858,-0.0049275546861961015,-0.1722100113579129
32.18,0.16654847506294668,-0.006219402937181899,-0.16810667657773118
32.19,0.28972655062217806,-0.0053487712452061015,-0.14713669144952835
32.19999999999999,0.3902051523527359,0.0043799230318188045,-0.1488011757838973
32.21,0.5604430505819048,0.004484718544645294,-0.16898801382163273
32.220000000000006,0.6366027305420089,-0.004842741272053198,-0.17248630448972446
32.23,0.7413189536978286,0.0159553724399493,-0.1720354960027268
32.24,0.9161764442577446,0.0296687081355305,-0.16100040297566576
32.25000000000001,1.0535043950425786,0.020358587589040005,-0.14488918048298668
32.259999999999984,1.0189545323496851,0.0050043290706125,-0.1649180783310724
32.26999999999999,0.9819886443837915,0.03359727551546279,-0.1483576537144099
32.279999999999994,1.0351249793735418,0.022747898208780093,-0.1588917176787265
32.28999999999999,1.066015977561852,0.03425038321582629,-0.18117754495616156
32.3,1.045712845934991,0.03193779743136502,-0.1589056573074313
32.30999999999999,1.042443464380325,0.0041027164782195995,-0.16564938892902067
32.31999999999999,1.0796749040770763,0.027002638061202705,-0.16425273376882082
32.33,1.0228421402751944,0.017313356090655797,-0.16942114621249812
32.33999999999999,0.97117079180615,0.005517463935941093,-0.1650545302072019
32.349999999999994,0.9757686416156925,0.027902974509307895,-0.14107727017758584
32.36000000000001,0.6875926523284892,0.017983034932009596,-0.171480246587208
32.37,0.33026317870850674,0.009321432088049803,-0.17776501819604512
32.38,0.09662801146337113,0.005977555890631998,-0.16745837310735526
32.38999999999999,0.05112048444037112,-0.005264333410815091,-0.1396991539705629
32.39999999999999,0.018505442157345807,0.0011214514324106003,-0.16330836925772196
32.41,-0.011262466950235105,0.010018196105965594,-0.17200778575250703
32.42,-0.05851532238940753,0.023911051389650495,-0.16709161195991126
32.43,-0.14527521541325297,-0.004665547303856904,-0.1779154539583666
32.44,-0.30375427267178756,-0.014454089742036508,-0.17133211097670237
32.45000000000001,-0.483344892429115,-0.015759942033700902,-0.13960222848671783
32.459999999999994,-0.6097311887495889,-0.012487276233085598,-0.17625197978234908
32.47,-0.7236363169525597,-0.0056834497512895064,-0.1765100917602975
32.47999999999998,-0.7592186390391328,-0.03475213812961339,-0.16473250000083664
32.489999999999995,-0.8400368667007454,-0.010210734710790799,-0.173477088424678
32.5,-0.9451865649186154,-0.0071388104216837,-0.1732415001490111
32.50999999999999,-0.9904415881562703,-0.018576085670215604,-0.18402067227144311
32.52000000000001,-1.01405853163951,-0.005893399535868103,-0.19633625683080547
32.529999999999994,-1.0820200315486446,-0.04086915080356131,-0.20151068089126783
32.539999999999985,-1.1336526533692999,-0.0300440271612499,-0.18429278232312563
32.54999999999999,-1.160275197594055,-0.009764048580399105,-0.18647880324443916
32.559999999999995,-1.0901633141905769,-0.0183947493662184,-0.19231715473183608
32.570000000000014,-1.2242791220537357,-0.04475148951525721,-0.19103096061733527
32.580000000000005,-1.0840923832732423,-0.0154215260982476,-0.19992201023339748
32.59000000000001,-0.7621942954718008,-0.025052704003535993,-0.21305709629063677
32.599999999999994,-0.4015862486990618,-0.016999371202144696,-0.2016932285009147
32.61000000000001,-0.3325857461847926,-0.00013450513847509826,-0.20636815197518374
32.61999999999999,-0.3685647210471464,-0.025985453000924502,-0.18361791479268447
32.629999999999995,-0.33547625808612663,-0.0012649301747139992,-0.19455033311915612
32.64,-0.314493230112681,-0.006326277035379202,-0.1864335319215238
32.65,-0.1403586328169756,-0.00763003722348369,-0.19408224473609922
32.660000000000004,-0.03754215927582384,0.008387356890107805,-0.21013643574275281
32.66999999999999,0.07794485060366671,-0.010735600990417196,-0.1885678119527523
32.67999999999999,0.17053007472396522,0.0010785861112578073,-0.1848098727428882
32.68999999999999,0.24871925857910548,-0.0067697162798447995,-0.18139841845806678
32.69999999999999,0.3963139338349418,0.018939057354303398,-0.1795212202717148
32.709999999999994,0.5080629752716296,-0.014906023505133197,-0.15955732531367214
32.720000000000006,0.6333545391436635,-0.009291275037982494,-0.17404683123473152
32.73,0.7521707571858132,0.0314083474140608,-0.17831660805907776
32.74,0.8843888079651795,0.008391939079231503,-0.20274537416754754
32.74999999999999,1.0208411697858175,0.0323272951576065,-0.1742756838334766
32.759999999999984,1.003292149525952,0.004761357534854599,-0.17330815256919196
32.769999999999996,0.9736065664524409,0.022749169503634,-0.16093688338464068
32.78,1.0600059818198302,0.015932290921248603,-0.17826146756578176
32.78999999999999,1.0647215504015872,0.006247277172705803,-0.16335371293879353
32.8,1.0756685400538375,0.026217754000675896,-0.16828397688869093
32.81,1.0004367039495314,0.026292354915663892,-0.18782876580610008
32.81999999999999,1.0392371273509184,0.009107229866323997,-0.17585430617896392
32.829999999999984,1.0429490626799387,0.026020000587850697,-0.17862922479011747
32.839999999999996,0.9591811533578287,0.00836031660390949,-0.17029000507572387
32.85,0.9857952050034248,0.0318306347349316,-0.1504447113603468
32.86,0.7183519636066682,0.011575801483848108,-0.17513716869785012
32.87,0.32339144716684415,0.0011050405035983916,-0.16606702081009592
32.879999999999995,0.10581097433871567,0.003954347492814288,-0.1656683790878956
32.89,0.06162637147314385,-0.012293933265715902,-0.1727028365637652
32.89999999999999,0.05795548757959497,-0.0038963220384865076,-0.16382248194740326
32.90999999999999,0.0014556594187325241,0.0075686318099080965,-0.17196463151778985
32.92000000000001,-0.06224714839568811,0.021743686838195296,-0.1633770943347595
32.93,-0.15511498372602173,-0.007711237648258998,-0.17721871149616036
32.94,-0.2928690864854826,-0.025168643668388703,-0.17004831483873795
32.94999999999999,-0.4633127765055236,0.008446654222664296,-0.15999297399781873
32.959999999999994,-0.6051437907148011,0.005633217672871797,-0.1849556160990501
32.96999999999999,-0.6436119901595014,-0.005559852410837207,-0.1813847924806701
32.98,-0.7391696666557767,-0.01194742469652631,-0.1843901009226065
32.989999999999995,-0.8654407312062152,-0.01454229132201451,-0.1856090573156542
33.0,-0.9517642379503987,-0.0052172008967596,-0.19840634465189308
33.01,-1.01241096786145,-0.0179788192101389,-0.19561604677900102
33.019999999999996,-1.015476550438767,-0.027071085637355698,-0.18579035681724781
33.03,-1.083878666515263,-0.044959625822763395,-0.20293186299356009
33.03999999999998,-1.1221202622877968,-0.0359880884164039,-0.21200676554778208
33.05,-1.1476012209905992,-0.0345129201329723,-0.2106594125028582
33.06000000000001,-1.0863935315381668,-0.026808344548278105,-0.20093260219529815
33.07,-1.2319787083703013,-0.0337836790038197,-0.2158062207133876
33.08,-1.1294090259877123,-0.015325962020767196,-0.21160183897778767
33.089999999999996,-0.7403603833299502,-0.0036369603473740985,-0.19992503223548516
33.1,-0.4033280410082333,-0.0345545466344174,-0.19514686125246394
33.10999999999999,-0.30674922962988904,-0.010307982937585202,-0.21202435711117082
33.12,-0.38194811591273625,-0.013074375700417602,-0.20991831092968152
33.129999999999995,-0.3650283392299257,-0.010119745175983201,-0.20881391499795687
33.140000000000015,-0.33870737689513614,-0.0037977386320934936,-0.18821606627436366
33.15,-0.1485695598282241,-0.006537371202594001,-0.1643285106553695
33.15999999999999,0.0009969839692307047,0.008629193503320304,-0.2121272680956653
33.16999999999999,0.11259580988748373,0.0045878547148678036,-0.17664304235751221
33.17999999999999,0.14432805545775274,-0.007945219380977402,-0.1982762710795614
33.19,0.26718956372289404,0.00783170832466151,-0.18575911623560828
33.19999999999999,0.3844043622025502,0.026097175534984588,-0.18383777232817458
33.21,0.5322846366835721,0.014460218509768212,-0.1856267152004302
33.220000000000006,0.6541460637613686,-0.004498221579469002,-0.16724552513519955
33.22999999999999,0.7342900123397074,0.02886620320458361,-0.1880919095197493
33.239999999999995,0.8580602606983023,0.012479886681942404,-0.17925765524871337
33.24999999999999,1.0224021264515908,0.0331217750281082,-0.1858791172306697
33.259999999999984,1.0044395882831083,0.014831779651841496,-0.174308978856155
33.27,0.9657910025088762,0.010423490581786996,-0.19250063200326303
33.28,1.0347221254775216,0.010427306750779502,-0.17948080621712523
33.28999999999999,1.0322317592663004,0.025741889633737587,-0.17853680992902468
33.29999999999999,1.0662770977378728,0.020336645191374802,-0.16670614288264549
33.31,1.046743876121799,0.023813636445185,-0.19375932921545913
33.319999999999986,1.0274057195981394,0.021736612173553004,-0.19137921958961576
33.32999999999999,0.9804552761953648,0.009385727479793202,-0.16538708853725645
33.34000000000001,0.9761815265870438,0.005262112439376908,-0.172723010139372
33.35,1.0140988419667776,0.0324625946019139,-0.17513394540413635
33.36000000000001,0.7505105338570001,0.002494350295605997,-0.15514859993239688
33.36999999999999,0.3175586053760778,0.01832621133278221,-0.1481365440660975
33.379999999999995,0.10509591729641767,-0.011055699150925398,-0.16356196723425104
33.38999999999999,0.0932113709489368,-0.0207564050233004,-0.16879549517057987
33.4,0.06368977335609295,-0.020989170881882305,-0.16765765076968178
33.41,-0.01072752863925282,-0.006105011141562501,-0.16328241546873004
33.42,-0.06080595320565786,0.02661712844709949,-0.1857781403411749
33.43,-0.14592056817739293,-0.014869407481917205,-0.1849059497860815
33.44,-0.3123712940141108,-0.008091425793697603,-0.1560286442879324
33.449999999999996,-0.4311045548994152,-0.0037600228528378065,-0.17055608849166862
33.45999999999999,-0.5744040581068546,-0.010801436321028405,-0.193476369189181
33.47,-0.6884957425455956,-0.03296773563675139,-0.2063771121324161
33.47999999999999,-0.7482306589458179,-0.018805560603785604,-0.1876271682661233
33.49,-0.8913401948369433,-0.018663502851064707,-0.17867481141961986
33.50000000000001,-0.9662750192280652,-0.0182181526722236,-0.18260558553873457
33.50999999999999,-0.9862098030023524,-0.03842848842831731,-0.18037822043194116
33.519999999999996,-0.9942650841937551,-0.0024301123184546068,-0.1801086286663902
33.52999999999998,-1.07936483038627,-0.027200275627774707,-0.19987794854432858
33.53999999999999,-1.1202230557832478,-0.0280445053654324,-0.21589358663992345
33.55,-1.1400666773196961,-0.0244950081241541,-0.204206825074302
33.56000000000001,-1.1146394475124621,-0.031016005767926104,-0.20184638875480157
33.57,-1.25951676402773,-0.018751289125469698,-0.20892849230934477
33.57999999999999,-1.1089289897500223,-0.025437271544812505,-0.18040219419337566
33.59000000000001,-0.7460013169077666,-0.020723730036812413,-0.1938829296896078
33.59999999999998,-0.36961239021969494,-6.721037739681595e-05,-0.19288454753307122
33.61,-0.3087292531263883,-0.0275257012946405,-0.1915472315150702
33.61999999999999,-0.34886300354848687,-0.0158212514494155,-0.19996760715939385
33.63,-0.38291443821441196,-0.013214590610574992,-0.20109305873974875
33.64000000000001,-0.3247324072766684,-0.014474129808002199,-0.16774376625818557
33.65,-0.1387128076361474,0.008701380536583599,-0.17450694073176343
33.66,-0.008817174512801427,0.004731976677304792,-0.1810194436738847
33.66999999999999,0.0860542789354481,0.0068788950990266015,-0.17642590818250511
33.68,0.1913698278681513,0.008980868558436496,-0.18959352155784623
33.690000000000005,0.2313433985205361,0.0037604426929307025,-0.198852022119566
33.70000000000001,0.4178903045035928,0.012412178895339104,-0.1727209473912281
33.709999999999994,0.5369429141269078,0.010617758823132198,-0.1895487516191717
33.720000000000006,0.6052449615971907,-0.01076568552634719,-0.17290406916032444
33.72999999999999,0.7518524293018107,0.047545013434311306,-0.1624982001795143
33.73999999999999,0.8384167571436553,0.005318097556950598,-0.1704798185508167
33.75,1.0410690042031998,0.047159093267912296,-0.15792691353585137
33.75999999999999,1.0277752395945152,-0.017493612367621602,-0.17061502308680684
33.769999999999996,0.9599919869273063,0.023401007574010396,-0.18587371438954006
33.78,1.0464873597686437,0.0072274496223868,-0.16904520834283296
33.789999999999985,1.0407074570053363,0.0181265864654917,-0.15775047261237896
33.8,1.0629734849705545,0.0313621904847942,-0.1566828145401
33.80999999999999,1.069101177939983,0.009742181197795304,-0.1507619157664146
33.82,1.0585371269046582,0.02118302957353609,-0.1479692449049911
33.830000000000005,1.0040739417323625,-0.006728955913658196,-0.11754349260292604
33.839999999999996,0.9991361596065993,0.017377110413911896,-0.14018507391799193
33.85,1.0087892387237776,0.018624289164458404,-0.11591893068057536
33.86,0.7295510301852361,-0.0005612998002397973,-0.13457793180074282
33.86999999999999,0.33934663549613386,0.009051698092222804,-0.12602992698893642
33.879999999999995,0.10963107012835076,-0.0054132596884997,-0.11153020479458263
33.890000000000015,0.09638743409448448,-0.011992642606247205,-0.12146046399946658
33.900000000000006,0.08600433532608978,-0.009444190755134394,-0.1130065867574644
33.91,-0.0177065451397173,-0.001964332313429007,-0.11538759435383028
33.92000000000001,-0.045477709043665104,0.007368623779789797,-0.12215454285749314
33.92999999999999,-0.15806016728654065,-0.013967490605081404,-0.11400606845606882
33.94,-0.33482897480226337,-0.029928183506656807,-0.09096798886660544
33.94999999999999,-0.4940636594273912,-0.012176298488324997,-0.08916120314977903
33.959999999999994,-0.6532473880926934,-0.0296482459606425,-0.1274715573782945
33.97,-0.7635272745471527,-0.013377593239955703,-0.09355164935756695
33.97999999999999,-0.8493677742386394,-0.018049392645421207,-0.12404118673131148
33.99000000000001,-1.0084142975693609,-0.04161677685708981,-0.11189010244480183
34.0,-1.0343465994638363,-0.0188089758026993,-0.0931557108581123
34.009999999999984,-1.0738382024638575,-0.0359460399957296,-0.12051788457436859
34.01999999999999,-1.0537413114796372,-0.0228850803919978,-0.11977418745499659
34.029999999999994,-1.0509640210266629,-0.027107323801151696,-0.13218994003186543
34.04,-1.0847799789356518,-0.0342886448731138,-0.1594304087258437
34.05,-1.027742781806665,-0.018867414145521,-0.1311299937906318
34.06000000000001,-1.1662565806350924,-0.030951085136530485,-0.15223847965359175
34.069999999999986,-1.1130204430138146,-0.023136760592049006,-0.16425146342278354
34.08,-0.7680774361991322,-0.0060705259283574085,-0.12067949683034022
34.089999999999996,-0.4010800610757753,-0.02365163533643479,-0.12893111592355772
34.1,-0.1880352384916147,-0.0042738163135062,-0.13872850284999527
34.11,-0.23008726980142444,-0.017683885972380808,-0.14875119662760872
34.12,-0.223877346907928,-0.015298057345434792,-0.14603379802663843
34.13,-0.19391304228892783,0.007919042464896098,-0.13299979831962666
34.14000000000001,-0.08559755392064008,-0.012744564682950996,-0.14057160067191113
34.14999999999999,0.03742031764309427,0.025531958891279804,-0.1414232031162412
34.16,0.162384389834634,-0.0201612855722223,-0.1294660945869323
34.17,0.18736966937470498,0.016517095960689704,-0.15308616956611162
34.17999999999999,0.27233146091665905,0.007762175501431001,-0.13559668088909946
34.190000000000005,0.37311425576247176,0.004925690585598107,-0.14900711063933497
34.199999999999996,0.4912085787013878,0.034600017913775,-0.15416809431136794
34.21,0.5672341677193891,0.005086740261508798,-0.12723478508957506
34.22,0.6574176366103038,0.010096737290951204,-0.14647160131818526
34.22999999999998,0.7137012063974675,0.023220855337754396,-0.13110254087099033
34.23999999999999,0.8056877114325924,-0.013241190287156203,-0.14031170160235548
34.25,0.781871118326132,0.016247564145089505,-0.15230769410411657
34.25999999999999,0.8659961067026563,0.020058518576155603,-0.1372500104680102
34.27,0.8508095601043979,0.025608208808585296,-0.15552695813839063
34.27999999999999,0.7642833931329283,0.021053624317416697,-0.13963567684583555
34.29,0.718359072175017,0.006879687776902499,-0.138514831878424
34.299999999999976,0.701748449726621,0.012284442296040103,-0.14161655910653043
34.30999999999999,0.6894338462343295,0.009265996581908601,-0.14454857191376527
34.32,0.6563089635358516,0.0106648604421354,-0.12328866693012275
34.33,0.6230683695661475,0.019300757279559502,-0.1493151237160543
34.339999999999996,0.5964864127266455,0.009511972715876098,-0.1682798466627215
34.349999999999994,0.4503931224459703,0.012671839612649108,-0.14753047550938872
34.35999999999999,0.2081647233369218,0.0014431277137320012,-0.1412795052984092
34.36999999999998,0.017321899048912553,-0.0031281899272441955,-0.14380238501540957
34.37999999999999,-0.05825078018607271,0.02497842467454169,-0.13270311433626023
34.38999999999999,-0.10763301754405347,0.0011405013511198965,-0.13770220859139676
34.4,-0.0900888207619617,0.005373870370768897,-0.15767068047686025
34.40999999999999,-0.17284729179557567,-0.007376983848264398,-0.16407054860773224
34.41999999999999,-0.26858280759808634,0.0083795452956172,-0.1723430138197432
34.42999999999999,-0.3458081336442584,0.004937639445397898,-0.14409181166487806
34.439999999999976,-0.37282988419847873,-0.02980878645032219,-0.14670993724785533
34.44999999999998,-0.4627126298270638,0.0164327963350509,-0.14118725654827774
34.459999999999994,-0.4883377725105381,-0.007370486546050697,-0.16160528125299892
34.46999999999999,-0.5261655988319935,-0.014047490966562102,-0.153546791846331
34.47999999999999,-0.5470528017821388,0.0002923038048453017,-0.16969547852327851
34.49,-0.5450828609835647,-0.029607617242062803,-0.183551506025173
34.49999999999999,-0.5724548257697011,-0.010719661425079201,-0.1696170581236571
34.50999999999998,-0.6039959874843911,-0.0354320442112102,-0.14952379147845674
34.51999999999999,-0.5629599525369862,-0.01703971340054169,-0.16726315254652704
34.53,-0.6166470799132452,-0.022831783268954305,-0.1630868549014607
34.54,-0.7245844332305631,-0.018777728264025486,-0.15396560090695663
34.55,-0.5585342621458953,-0.004674218763855891,-0.15312032081594262
34.55999999999999,-0.29015094845597467,0.0016954504665003054,-0.16866775187984798
34.57,-0.18044213677879897,-0.006820075359406297,-0.18307852167279232
34.579999999999984,-0.17716153828287495,-0.006532969837593,-0.1826693919838145
34.58999999999999,-0.18684012975657602,-0.009443817303931195,-0.1637509328195505
34.599999999999994,-0.1387789957405177,0.009180784987352602,-0.17435250966482763
34.61,-0.06665179853619337,0.008984554955411717,-0.1786176880771899
34.61999999999999,0.03069604790538778,-0.0065366394523302925,-0.18243714486820192
34.62999999999998,0.0602940883149448,-0.0097566653823624,-0.1777169854262867
34.63999999999999,0.053846936268161394,-0.0018272076636292032,-0.1862566844739293
34.649999999999984,0.047083599378438194,-0.0015091357703248948,-0.18037957872801622
34.65999999999999,0.07202946601807604,-0.005760848356996594,-0.1640315087240732
34.66999999999999,0.15336143116278458,0.021040689814998598,-0.1605476964950999
34.68,0.22834541910597891,0.00939529787000021,-0.16071577369113443
34.68999999999999,0.27294100262665694,0.020675799255028902,-0.17275173221355605
34.699999999999996,0.2800595554821873,2.78130406696862e-05,-0.17829021460619313
34.70999999999999,0.24466377682483686,0.009068827873380304,-0.17724268073510063
34.71999999999999,0.3005178517369336,0.0024901488284204028,-0.18995389937900342
34.72999999999998,0.36078252035684144,0.001978713829226401,-0.15672363323788555
34.74,0.3967515618077689,-0.003019498465272703,-0.15304154314701057
34.74999999999999,0.3791200096683229,0.027847680998722202,-0.16057483368897796
34.75999999999999,0.309455738590999,0.008038977355765094,-0.18106990489928174
34.76999999999999,0.30910905919270687,0.0010422280518401017,-0.15632359352407202
34.78,0.33083755111425345,0.011245937863623299,-0.1777844803437723
34.78999999999998,0.2670313690400067,-0.021339461656017394,-0.17541189910887442
34.79999999999999,0.207326369618821,-0.0034498908863877056,-0.18028678239108575
34.81000000000001,0.1871291356902676,0.007285320605052097,-0.17186995367667968
34.82,0.1814820883169214,0.006798505646341302,-0.17160674064076434
34.82999999999999,0.0934832244445018,0.012596549761385597,-0.17880007003515755
34.839999999999996,0.048808305927344156,-0.009976676374160798,-0.1616355176133838
34.849999999999994,-0.02268899406751353,0.01399465359620041,-0.18376853673636387
34.85999999999999,-0.06350660811978497,-0.004702269898461396,-0.16914684111703157
34.87,-0.03570088758274485,0.011351219716839889,-0.17564170338162846
34.88,-0.06408469787603877,0.0003339726942417029,-0.17204869894372155
34.88999999999999,-0.10977716228225626,-0.008014908145878298,-0.17191169279981874
34.900000000000006,-0.17416846247999204,0.0021401261670780007,-0.19951371007282198
34.90999999999999,-0.20770225128833658,-0.012239615517474002,-0.1888426722417933
34.91999999999999,-0.180010543704805,-0.009182667737771506,-0.1744498538523874
34.929999999999986,-0.16345198248235646,-0.005384379903118195,-0.1821662342227937
34.93999999999999,-0.16591362332307927,-0.009837423157107299,-0.18206361253467826
34.949999999999996,-0.09537081702588736,0.005607350151929798,-0.17442482731558834
34.959999999999994,-0.021797423300913037,-0.007317884691087292,-0.15805425234529769
34.97,-0.008266055889464143,-0.006705010792309995,-0.16281979194956547
34.97999999999999,-0.015828251536623584,-0.015037137074201708,-0.15452824183214828
34.99,-0.025889354268771547,-0.0010659613471335992,-0.18002842788350867
34.99999999999998,-0.007927430003419415,-0.005148839754741896,-0.1326251324284008
35.00999999999999,-0.016803205073869423,-0.0127211984842394,-0.13370247781043668
35.02,-0.012793375782398149,0.0051123641407238895,-0.13968434704262978
35.03000000000001,-0.016032606354885,-0.0062244908194332964,-0.13784804906351789
35.03999999999999,-0.006579250571290182,-0.0050103389171921985,-0.11916121449112078
35.04999999999999,-0.03378741043624344,-0.008340782607508698,-0.11710668462907536
35.059999999999995,-0.02117746473251395,-0.018874787353294897,-0.13984560825405856
35.06999999999999,-0.015587000292089363,-0.013772325872998011,-0.11679290131355358
35.07999999999999,-0.017265162290748693,-0.011995777781428902,-0.12109631806005293
35.089999999999996,-0.03292011233136278,0.0033862809508409955,-0.11470265772283374
35.1,-0.004844261530677622,0.018698644066303005,-0.1011510692075426
35.10999999999999,-0.008954284342031554,-0.026588186776832293,-0.11583354705659474
35.12,0.0031923145277700992,-0.0107510502898795,-0.11960868309068927
35.129999999999995,-0.0031416979436655864,-0.0119603757987561,-0.13927038278146717
35.13999999999998,-0.022234367811969094,-0.010686648689717108,-0.1224362352105039
35.15,-0.01804088856724454,-0.005325315604266294,-0.1118296742244913
35.15999999999999,-0.003496703958151473,-0.023808012613962305,-0.11438985443144123
35.17,0.006119883911649226,-0.011560809577568488,-0.11821940548187364
35.18,-0.018330055709948626,0.0007319995934080037,-0.11985893052275574
35.19,-0.02782409660738854,-0.008780401914654994,-0.10736862660311675
35.19999999999999,-0.005879462983979841,-0.006297995649387511,-0.12172028698677283
35.20999999999999,-0.02874398324864161,-0.016465811973437397,-0.13210179496564523
35.21999999999999,-0.006047300532366349,0.001252936459365595,-0.12033988363636837
35.22999999999999,-0.025907550136015357,-0.0136996819152036,-0.11047425110426771
35.239999999999995,-0.020113565136534135,-0.0058865184715274,-0.117911873460953
35.25,-0.022281247550716622,-0.005079128264472004,-0.11132735868581774
35.259999999999984,-0.017165836833804862,-0.0048196404812769975,-0.12990718944077279
35.269999999999996,-0.023964002112401493,-0.0002325694844310059,-0.12384053631736239
35.27999999999998,-0.016749594465607805,-0.0059205769697407,-0.1443349605390473
35.28999999999999,0.0013184761487122162,-0.00020916906159890397,-0.1354706553058558
35.29999999999999,-0.010030176205067947,0.0026935004715515024,-0.1283586087228642
35.309999999999995,-0.022274143713298708,-0.0016949373500661964,-0.13643522586677684
35.32,-0.014624886739325955,0.003539679898920099,-0.13146959389235954
35.33,-0.007138229004064878,-0.009757574637925502,-0.14605969152005654
35.339999999999996,-0.014686074466928514,0.0008620764968588988,-0.13129945874349006
35.349999999999994,-0.016779020074037622,-0.0072574328265855945,-0.13571627867269265
35.36,-0.018499722314108104,-0.024597923221551608,-0.1553180443741952
35.36999999999999,-0.028048473444602595,-0.008523846294073299,-0.12436988875337535
35.379999999999995,-0.007490511644350419,-0.006320439797759199,-0.1295953342416389
35.39,-0.027657891183953637,-0.0052742726716625025,-0.14492128209526595
35.39999999999999,-0.010331845948965895,0.002195389509781697,-0.1451828695317883
35.40999999999999,-0.015254658198565082,-0.003559873021999309,-0.13201143174532692
35.41999999999997,-0.01321729726509922,0.009617388587230104,-0.14200956017960792
35.43,-0.010228822806841377,-0.0008734287699642953,-0.1492396173481788
