Time (s),Acceleration x (m/s^2),Acceleration y (m/s^2),Acceleration z (m/s^2)
3.9699999999999993,-0.023956370987828175,0.012704230292206393,-0.2424515873543525
3.980000000000005,-0.008610206180534678,0.010331196393438111,-0.2353358750372218
3.9900000000000024,-0.0037633556263565494,0.0033799215542269093,-0.21040649520250035
3.9999999999999942,-0.02180970074082951,0.001685828417558904,-0.21986877407954603
4.010000000000004,-0.0018576253223923326,0.003988567170266703,-0.20141851202292008
4.019999999999997,-0.02528850680192423,0.004484711052157115,-0.2009211612347182
4.029999999999998,-0.009193180619382957,0.0020844130658857086,-0.19066953039855533
4.039999999999997,-0.0003290191645796905,-0.017354253540938395,-0.19456248271329477
4.049999999999995,6.49271646406254e-05,0.015524916898726086,-0.19840007924594427
4.059999999999992,-0.017598244370552716,0.003675190659542404,-0.17742172230821462
4.070000000000002,-0.0034015840154955606,-0.0067873703276502256,-0.15825510367763773
4.079999999999994,-0.0006231601514441123,-0.0016126733095985914,-0.16822976968473946
4.089999999999993,0.046825518253311084,-0.004492887965362196,-0.1828188968795782
4.099999999999995,0.24572954027878227,0.00920620116257451,-0.15221079847660107
4.109999999999996,0.35023728756639555,0.012477148329059511,-0.16649498182831216
4.12,0.2859698420103854,-0.008181170163933701,-0.17274620240003102
4.129999999999999,-0.00339537042678996,0.0026673913506317917,-0.16467781764330414
4.139999999999998,-0.25226851585358906,-0.0030581918009664013,-0.1715812003811345
4.149999999999995,-0.3740084335543283,0.007524780194782411,-0.1628299166494806
4.160000000000002,-0.44307223762525755,-0.013524350586583302,-0.17775952394991876
4.169999999999993,-0.397754770231337,-0.00925605242412357,-0.18515472558397372
4.180000000000001,-0.4451775915823612,-0.01209855391941111,-0.18289225809060083
4.189999999999996,-0.5136029873894212,-0.028137955471879396,-0.175730269312769
4.199999999999998,-0.43300156955029256,-0.007085273665286793,-0.16622851112436907
4.209999999999999,-0.2105487729898271,-0.00832651276013501,-0.16716248004258824
4.219999999999998,-0.02154638938348022,-0.004795072308330304,-0.16646579512056423
4.230000000000002,0.1394555820177901,0.009761333004638904,-0.17844951076623136
4.239999999999999,0.21512446478484634,-0.010462711936990788,-0.18002236824219628
4.249999999999998,0.29147736962188453,0.011962409449002304,-0.15613140493232222
4.26,0.48769552574470715,0.00663094873871911,-0.17389656545692417
4.269999999999997,0.7571986675056593,0.03013466023980419,-0.1589569325796008
4.28,0.9135834328901029,0.02749507801549049,-0.1596764739214452
4.2899999999999965,0.9447389389700728,0.013315760918575793,-0.1497939606968792
4.300000000000002,0.9761826635087961,0.025736647842220493,-0.1466056304273972
4.309999999999995,0.8508738561094686,0.010654429227424902,-0.14824457593001372
4.320000000000006,0.49652297496874376,0.01373852554827658,-0.18421114774376576
4.330000000000001,0.10319181438239283,0.013826420001926276,-0.1720759246344734
4.340000000000002,-0.20389355371722243,0.013087627684093309,-0.16875457650816025
4.350000000000001,-0.31230198834673756,-0.0008429942883758212,-0.1730506463894676
4.359999999999996,-0.5200696591490152,-0.02304580096245491,-0.20086500794280193
4.370000000000001,-0.7392561515079591,-0.0159605711486926,-0.19017552275851451
4.379999999999999,-1.0083039154284101,-0.016946456012680782,-0.19409447028294974
4.390000000000001,-1.4082540456145307,-0.03525875252894058,-0.21759921742875765
4.399999999999998,-1.7220727898779733,-0.035001310844706986,-0.19849963527471953
4.4099999999999975,-1.4722664055168424,-0.02625354879698382,-0.21243089978169313
4.419999999999994,-0.9761052230244406,-0.005488335844120907,-0.18455141748990803
4.429999999999996,-0.5657539547129228,-0.031016826505117383,-0.20020262910636197
4.439999999999998,-0.3670227879601515,-0.006855551464416993,-0.20410970391919545
4.45,-0.37094777682046215,-0.00018858508344949066,-0.19553185257000547
4.459999999999995,-0.28235990416128803,0.005337198885463194,-0.19881762125519772
4.469999999999998,0.10210858870513163,-0.0018210384730179038,-0.19668843677950845
4.479999999999996,0.4850248672801702,0.012618713429655403,-0.1952135916711271
4.490000000000002,1.0110041628780833,0.02164255283891163,-0.17553437363559618
4.5,1.5223657139644122,0.047636859310765,-0.1723036363278013
4.510000000000002,1.622711679735693,0.04274187175764749,-0.19294858201956444
4.519999999999998,1.7404999827637218,0.020724864185541713,-0.1495396279090035
4.530000000000001,1.8071010079848762,0.04144378888074289,-0.17675763476960338
4.539999999999993,1.86605756291999,0.03790339057517548,-0.17994990686072052
4.5499999999999945,1.6955847568794358,0.024459370156515288,-0.17524011497356867
4.559999999999995,1.1654442305540733,0.014058400204256395,-0.17852763216833548
4.570000000000002,0.5608008974113873,0.023661702581009504,-0.17355886133830836
4.579999999999997,-0.01079922268390945,0.029513489073208186,-0.17164259791896294
4.59,-0.41218265363951045,-0.0018727045313525978,-0.15654011291155356
4.600000000000007,-0.8150943343906271,-0.039260647946984605,-0.18658579010844722
4.6099999999999985,-1.2047144872492523,-0.02293409788280382,-0.1997966252199367
4.619999999999996,-1.6305005956202692,-0.03975893390982381,-0.19079453060749224
4.630000000000004,-2.0664284067377245,-0.03759023376305459,-0.1943241915318043
4.639999999999993,-2.2992552183980317,-0.06418764811049679,-0.1870722588010723
4.649999999999999,-2.450433549511607,-0.06188943707171438,-0.20231992562114065
4.66,-1.9720876859978165,-0.010242512000526971,-0.19743597714715277
4.669999999999996,-1.1318387734541722,-0.029749777812294098,-0.17691793044791745
4.679999999999997,-0.7144076643474627,-0.03700197005367081,-0.18676561143443882
4.689999999999997,-0.5185759994893783,-0.03127896865265761,-0.14591695931667012
4.700000000000005,-0.24554060196905508,0.006246362884311791,-0.14780010778693947
4.709999999999999,0.032164643242778734,0.00837291546692989,-0.1337397431407274
4.719999999999998,0.4388880234761026,0.000596715402635004,-0.10628515184578143
4.730000000000003,0.9397947739974294,0.03827892516968271,-0.1504549239664876
4.739999999999995,1.5524154378480322,0.030690962494182714,-0.10773508465284927
4.750000000000005,1.9634460347980505,0.0366495800805586,-0.1154061586351285
4.759999999999996,2.1496354151444907,0.038496846424226586,-0.10395704123682735
4.769999999999997,2.112226584155996,0.04510330554228499,-0.13341911894086603
4.779999999999997,2.0423752258944345,0.037466163847479486,-0.11509814055960825
4.789999999999997,1.9410010768611452,0.03132407840483923,-0.11167680000608422
4.799999999999997,1.5257400463468855,0.0261684465392061,-0.1411824717995697
4.809999999999997,0.9625519169228108,0.020943265468533392,-0.14316875231835927
4.82,0.4501282566740108,-0.010746207427735794,-0.1400572780337287
4.8299999999999965,-0.10421488416284055,-0.0093579384082695,-0.13346545532121232
4.8400000000000025,-0.4644325121566107,-0.003258331626673825,-0.12981142360107287
4.849999999999998,-0.8167154269621633,-0.01893031881576722,-0.17655037717067515
4.860000000000006,-1.1937504280895326,-0.01706310739928952,-0.14773051276459667
4.869999999999999,-1.5933350476924037,-0.045142330561529685,-0.16951232848720899
4.879999999999998,-2.0100972528609704,-0.0385289474843806,-0.1962545740187376
4.890000000000003,-2.32001345420292,-0.04264127631533911,-0.1599440078859022
4.899999999999995,-2.4841638756979756,-0.03962991325736591,-0.1970490191775872
4.910000000000004,-1.9980225165399241,-0.02881178413346338,-0.14910125866159096
4.919999999999993,-1.1910948212844983,-0.002241724634324195,-0.1837213707636109
4.930000000000003,-0.7002948572557548,-0.024284751500639815,-0.18722661706453375
4.940000000000002,-0.43687678475549446,-0.024153187454890302,-0.1680823707537858
4.949999999999999,-0.25119510265767897,-0.00797908624884579,-0.19828263945461921
4.959999999999998,0.004568719821970079,0.002567032208488175,-0.17148926626434102
4.969999999999999,0.3829598694146564,0.003457376004652189,-0.17656216487009638
4.980000000000004,0.8989751065011907,0.0314977961987913,-0.16738131273428397
4.990000000000002,1.5596654985339484,0.034731257643099395,-0.12521527299948992
5.000000000000002,1.976472429079344,0.0303122357023885,-0.15861018891659948
5.009999999999996,2.0765834137195327,0.05530407418977359,-0.1661074234037732
5.020000000000004,2.109108957329726,0.01900693648582211,-0.1769332682676152
5.029999999999998,2.014384515998386,0.024139058877092397,-0.18749556538621667
5.039999999999999,1.968243717545446,0.0429205288268291,-0.1478094137656429
5.049999999999996,1.4590579875454452,0.02088894417405861,-0.1756863028531019
5.059999999999996,0.8576650179291894,0.030105822473203793,-0.15798219097633534
5.069999999999993,0.45834595964223573,0.011995113171933195,-0.1410087543973308
5.080000000000001,-0.04710775542693583,0.00012017798026737636,-0.17493336535656065
5.089999999999996,-0.513792294084007,-0.0222500282394843,-0.15743936648284956
5.100000000000001,-0.8599352561000181,-0.017942712217921594,-0.1916508148986236
5.109999999999999,-1.2489407443248552,-0.033839206624066906,-0.20207838961775632
5.12,-1.5838586417422378,-0.05096460253642811,-0.1892711402802374
5.130000000000001,-1.9923802987545474,-0.04041982995001749,-0.21200616975405137
5.139999999999995,-2.331933114413075,-0.03020180496358751,-0.2124168782431628
5.149999999999996,-2.5163187373280063,-0.08114348877267752,-0.19093535115787894
5.160000000000005,-1.9662880435135766,-0.01749260455032238,-0.22179672214966006
5.169999999999999,-1.2621547917849847,0.0037474518965616163,-0.21791919709861363
5.179999999999998,-0.7746625220155386,-0.030092652996117502,-0.23052651282843822
5.190000000000002,-0.4426295834388323,-0.030701819393030495,-0.202747599879286
5.1999999999999975,-0.22213838622792517,-0.019445540236361393,-0.21099300559798234
5.209999999999998,0.07877860481616011,0.0185038887289794,-0.19481738713818728
5.220000000000002,0.40439278457570393,-0.01909293058245771,-0.17007550211234376
5.229999999999999,0.8821982558508842,0.04431717793685979,-0.19151570078098026
5.240000000000001,1.5214717104449487,0.035830605484366916,-0.1582280922058329
5.2499999999999964,1.9546164112922393,0.03511982193177048,-0.1748268852863658
5.259999999999998,2.159211940285843,0.04678569861357771,-0.15173904651536124
5.269999999999998,2.1481750120246934,0.015375711874386605,-0.14746608484163173
5.280000000000004,2.0542501825873822,0.03456401114398112,-0.137206721378938
5.289999999999999,1.8481819402097162,0.0248246924461637,-0.14800460893325676
5.300000000000002,1.5112308620188384,0.014499318732399407,-0.1648276078893974
5.310000000000002,0.9350508942971203,0.025386982650546987,-0.13080423277479064
5.320000000000003,0.4176953885610013,-0.0041621238669529124,-0.13652266431443844
5.330000000000002,-0.0014992819963846257,-0.0005699478896141274,-0.15090231311736413
5.340000000000002,-0.4775917891995374,-0.01981699786994841,-0.13175447291961945
5.3500000000000005,-0.8112618744530262,-0.012178102326488416,-0.13295191229554587
5.359999999999993,-1.2408532250969226,-0.032515969378572304,-0.15943866281770994
5.369999999999997,-1.5796176319852113,-0.06637720224521432,-0.16709594227527128
5.379999999999994,-1.9677726023109299,-0.046694683238535116,-0.16920134059457814
5.389999999999999,-2.3281655977125237,-0.050644649063916004,-0.14835026806529658
5.399999999999998,-2.5123744245885202,-0.06814649112644629,-0.18401042923064928
5.41,-2.0282362421187905,-0.018646313770848216,-0.17169586998583455
5.419999999999997,-1.1975570498541837,-0.013146949411577416,-0.16043101249521335
5.429999999999998,-0.7322853548639944,-0.009559812834954889,-0.16021936110471205
5.439999999999998,-0.42677420826529405,-0.0312705675805859,-0.16364512713307017
5.449999999999998,-0.2363353260065722,0.0055494156026620065,-0.16916237498227274
5.459999999999999,0.011512222475210838,0.0072004247398171975,-0.1450727963897939
5.46999999999999,0.40518827611763303,-0.011518240315218382,-0.12472004537145705
5.479999999999998,0.8618548398594197,0.008934365695208613,-0.17535105306839163
5.4899999999999975,1.5032269363466413,0.02570883480038921,-0.12651713563654265
5.499999999999998,1.9466808531508515,0.028529445513036218,-0.1540279810679552
5.510000000000001,2.111137568732333,0.05367779395363449,-0.148202672672427
5.519999999999995,2.1565476094744516,0.055173233989258,-0.15860668113497434
5.529999999999999,2.0104984141714053,0.03411169732586288,-0.16402842879654997
5.539999999999997,1.9213052770473744,0.04324008912825227,-0.15108018226634384
5.549999999999992,1.4875505050116737,0.02627224239666219,-0.15938535585592362
5.559999999999997,0.9246924399270268,0.00616937455209407,-0.152412700576598
5.570000000000002,0.39820881766716376,0.0034750046140923727,-0.1497815736565986
5.579999999999991,-0.025451997401681123,0.01641988197611897,-0.17665369031951364
5.589999999999999,-0.43146682163595995,-0.0019999854876798207,-0.1761415183686732
5.599999999999994,-0.8097682899897166,0.0013288769252810793,-0.19061971795290122
5.610000000000006,-1.222192959632135,-0.0217543447026843,-0.1882304402779921
5.619999999999995,-1.5913830046442015,-0.04752023973105559,-0.18322293729649025
5.630000000000003,-1.9840468252811223,-0.0410127529981925,-0.17285574166527334
5.639999999999999,-2.3077996810184565,-0.031020716531871207,-0.18785858096881114
5.65,-2.521717093364485,-0.0539694856510844,-0.18022252886597917
5.659999999999998,-2.0194362917987942,-0.05028333457128198,-0.19288420199888437
5.669999999999996,-1.2138754026944347,-0.004080709687767311,-0.2041757072909506
5.68,-0.7635873150734577,-0.03934886291504639,-0.1896071476777316
5.689999999999994,-0.4504270644786129,-0.019014037069330584,-0.19116427784809922
5.700000000000002,-0.22339657741779145,0.026022307404716605,-0.18524292607587253
5.709999999999998,0.011752235492628849,0.010847298625690623,-0.19340208024957561
5.720000000000002,0.43568687659756494,-0.010201935485271294,-0.14940492981524395
5.729999999999999,0.8717947021477935,0.033167154490012306,-0.18410831295028365
5.740000000000001,1.5100660126405236,0.060833276227469806,-0.15734603610463038
5.749999999999993,1.9661103111388356,0.019209964041163465,-0.174723128821767
5.7600000000000025,2.1068253075149608,0.05876776553534818,-0.17114342243860567
5.769999999999993,2.1326214444402116,0.03740824184494511,-0.1584741713652747
5.779999999999992,2.0280012048209843,0.04069105005497459,-0.21138152455687945
5.79,1.912115837792872,0.05696757427111647,-0.1733931824104638
5.799999999999996,1.4636341790676317,0.032461163847869165,-0.19343237965739515
5.809999999999996,0.8700265140901987,0.021480791313368282,-0.19760883971874332
5.820000000000004,0.41220797447014795,0.021158480211561494,-0.16028117415788115
5.829999999999997,-0.0971029361146666,-0.01861591345028502,-0.17535706793599207
5.839999999999999,-0.42914287736881457,0.00449915525817588,-0.1537000835459814
5.849999999999999,-0.8252416282980937,-0.015821603216835806,-0.1631647851183296
5.8599999999999985,-1.2355575880038492,-0.02109481158573658,-0.18229605248231923
5.8699999999999966,-1.5716845018218608,-0.07196255350171578,-0.18153037570879044
5.880000000000005,-2.0210537823238686,-0.04383992864340888,-0.17801284678340215
5.889999999999997,-2.3377357114400112,-0.038549861482690385,-0.18025706959009524
5.900000000000006,-2.500200610915921,-0.09389881636303328,-0.1695567154386093
5.909999999999999,-2.029486653026582,-0.0369032715654112,-0.17060554766856442
5.92,-1.2628447962442269,-0.01824797451432019,-0.1566768230321034
5.93,-0.7337563992443844,-0.06389793167090878,-0.19462700435195932
5.9399999999999995,-0.42933622037398755,-0.02683213265111379,-0.1648007374729876
5.949999999999999,-0.2324560852285265,0.003572082114610523,-0.1444612460281562
5.959999999999999,0.011752309463424771,-0.013552854793917777,-0.14310262855202105
5.969999999999999,0.38865113748165786,-0.001121394957780799,-0.131740669316867
5.98,0.8719602500390831,0.033146380956281585,-0.1475759553452267
5.990000000000001,1.4838656710071523,0.0297470587589758,-0.09486017853627655
6.000000000000002,1.9378347261106046,0.0335182700660239,-0.1192282216322103
6.009999999999998,2.120579549478158,0.042009618237635285,-0.12144813090131218
6.019999999999992,2.1331812425962604,0.03505563066051448,-0.0991231429666572
6.029999999999996,2.0217869569950357,0.053620189255981096,-0.1238961707240268
6.040000000000001,1.9658901411281584,0.045926260713363073,-0.1153622023438475
6.049999999999997,1.5183264390738231,0.0339737569297812,-0.14517455228640314
6.059999999999999,0.8985613951180533,0.011558027870962722,-0.12243483698317383
6.069999999999995,0.45328350301017817,0.0125549093144631,-0.14059466627305361
6.080000000000002,-0.026437347562659492,0.0038046665378122903,-0.14326482747513958
6.090000000000001,-0.45335769552983296,-0.008620856136037096,-0.1443823484421479
6.100000000000001,-0.7746169258053512,0.004226905229396505,-0.1711410948580827
6.109999999999996,-1.2365867784528008,-0.04848980759745428,-0.15601445491764565
6.1200000000000045,-1.5329888216722118,-0.04884077027201048,-0.19074555424192283
6.13,-1.977852961112951,-0.03708514053573558,-0.1918709405384473
6.139999999999995,-2.334644429912908,-0.0626041496020881,-0.1728689110939771
6.149999999999998,-2.4844834490896135,-0.043886618629358595,-0.21334850437853584
6.159999999999998,-2.0371600162054704,-0.020323519083654193,-0.19257101558385759
6.17,-1.2762914714804139,0.0010902785975256118,-0.18007088900346574
6.179999999999998,-0.7168087075841876,-0.026331567204116592,-0.21262531570984028
6.19,-0.4075793340090453,-0.01956741966403398,-0.1648990977796655
6.200000000000002,-0.21007651799733265,0.001096219850307712,-0.1603360461807304
6.210000000000002,0.044531890746753816,0.0085315853442191,-0.17062773243574725
6.219999999999999,0.4154795848683848,-0.01598773588005809,-0.148637973309172
6.229999999999998,0.855495811385349,0.03407576329127541,-0.19113576303826
6.240000000000001,1.559415395056081,0.062440268281730466,-0.15215568264275625
6.249999999999998,1.9556807699731356,0.03616936777096181,-0.14459597411458752
6.259999999999997,2.098034439065118,0.0687842407519372,-0.1386519161734691
6.270000000000001,2.1499905832695543,0.03214922219644259,-0.13005698558115814
6.279999999999998,2.0559136916692493,0.036943768690374905,-0.14139190040570546
6.290000000000003,1.8906077837293633,0.0355976730856449,-0.14987044977662492
6.3000000000000025,1.4945799441286665,0.038677263827531595,-0.18653899960323395
6.309999999999998,0.8659565047992194,0.025344307164824696,-0.1583190670795494
6.320000000000001,0.42409640287794226,0.016098237422984604,-0.16585279993667637
6.330000000000001,-0.0399825347189403,-0.011032241663034905,-0.15488817826564663
6.339999999999996,-0.44884934191630466,-0.0076325303415896995,-0.181319292960002
6.3499999999999925,-0.796592393095515,-0.011584431184218702,-0.1706248671921819
6.3599999999999985,-1.243135774484065,-0.030984895330970985,-0.22262854374603208
6.370000000000001,-1.590943958863928,-0.05632964598199858,-0.19630209808047672
6.380000000000002,-1.9794755967607074,-0.0540726198849825,-0.22045357825134315
6.390000000000002,-2.3520698866815586,-0.042820025249165304,-0.22042616049875113
6.4,-2.5200063139073685,-0.0781526650356009,-0.18376748465896375
6.410000000000001,-2.0466834038790895,-0.032824530360973894,-0.2047265020371752
6.42,-1.2694239870856623,-0.007611999459322802,-0.21186737345148798
6.429999999999997,-0.757184048393672,-0.049131311674441874,-0.214161778564189
6.439999999999999,-0.40178142999825095,-0.002732535470360203,-0.21059256549652539
6.449999999999999,-0.20443949247218826,0.010812657051563711,-0.21808940482952174
6.460000000000004,0.04347902903825412,0.016467124622573104,-0.17807725929502022
6.469999999999997,0.40433773863007355,-0.0128591450187195,-0.1754202076551357
6.480000000000002,0.834364910950758,0.030435600674174192,-0.19740719834029719
6.489999999999995,1.5155799268128236,0.043359709417538715,-0.14052652286731038
6.499999999999997,1.922506137402491,0.027748263771439,-0.17177822438392973
6.509999999999996,2.121828378229526,0.059105942615644294,-0.16614871814171045
6.52,2.1658593906523365,0.017481769009968933,-0.1811517290112631
6.530000000000003,2.0658971494282925,0.046902248253630416,-0.18714591734105082
6.540000000000001,1.9173576848983063,0.05090672940474268,-0.15128380213916034
6.549999999999995,1.450616133953287,0.0200583771343698,-0.1733942598172396
6.559999999999999,0.868456351195341,0.018801852935882605,-0.1803723151099674
6.569999999999998,0.370641664431143,-0.0003165133394345831,-0.19007152712751324
6.579999999999992,-0.02871913942634448,-0.0086937561158498,-0.18378430640147872
6.589999999999998,-0.4671412853179257,0.004489253084468397,-0.16723276643989343
6.600000000000001,-0.806465431631627,-0.021934026973013023,-0.20141946288360113
6.609999999999998,-1.1816080063087033,-0.03085848813213403,-0.21675782567354798
6.619999999999997,-1.5966270972463161,-0.060132455237081515,-0.21190868114199554
6.629999999999996,-2.0595700346870682,-0.03890052725990539,-0.24677396682867975
6.639999999999997,-2.3718312569064595,-0.06051751375919161,-0.2228973612621876
6.6499999999999995,-2.5045988876105603,-0.0650594025604089,-0.2610824060868564
6.659999999999991,-2.046862144540312,0.00505975611073,-0.2048426139317509
6.6699999999999955,-1.2514677551838962,-0.03341236555847568,-0.20720323203778193
6.679999999999998,-0.7358963731084037,-0.022694941412175183,-0.22528582093977922
6.689999999999994,-0.41902631186268663,-0.008865994768224607,-0.21483259135425012
6.7,-0.2137671517561504,0.0031643564264662036,-0.20878664940439817
6.709999999999999,0.018805716903556823,0.008069133209836805,-0.2248783563411055
6.720000000000004,0.4172902995516807,-0.0043016595756545034,-0.21571224069803918
6.729999999999996,0.8334245078730967,0.03185718899099571,-0.20589420741177986
6.739999999999994,1.5140896704635343,0.02202638656931029,-0.17215640544352148
6.749999999999999,1.9763961328334914,0.030717631994422324,-0.17775448658967796
6.7599999999999945,2.168977292234201,0.053267400357289794,-0.15960200958786286
6.770000000000001,2.1272489396402428,0.02837215515113219,-0.17981730081391492
6.780000000000005,2.0226884024698846,0.039831547512252895,-0.19747325288363865
6.790000000000001,1.930279913003159,0.03568275503009649,-0.19433813330237695
6.800000000000006,1.4354631021698545,0.05030599559956499,-0.18287349774194092
6.809999999999999,0.8965397251019029,0.007202582151126202,-0.18591594541348694
6.820000000000001,0.3863306462088765,0.016216956158364503,-0.17199424574325672
6.829999999999998,-0.07255560851811976,-0.006693144783727003,-0.18283130483683327
6.8399999999999945,-0.5000662974358723,-0.004066095720420722,-0.17313950990810534
6.85,-0.8366182519275945,-0.010730046508701432,-0.20423316924174528
6.86,-1.1781827671120875,-0.03729288687074703,-0.24462478599295748
6.869999999999999,-1.6334592722678485,-0.03170721367992592,-0.2165601657401886
6.88,-2.045906684809199,-0.04330631245024861,-0.22642166381122583
6.8900000000000015,-2.408874275390819,-0.05934957892536247,-0.228425646805624
6.8999999999999995,-2.535393777725061,-0.031333698307477384,-0.22001209410496234
6.910000000000001,-2.0236432681927408,-0.02982167294472218,-0.22048833663843462
6.919999999999999,-1.2717154316773278,-0.0034545784886506896,-0.2559419693448693
6.929999999999998,-0.6943614781774762,-0.02133002528540289,-0.23438141475378696
6.9399999999999995,-0.3901569489114872,-0.028045788584311494,-0.21111699597377065
6.949999999999994,-0.17608279698879034,0.009138573308725383,-0.20969825652615356
6.959999999999998,-0.0016137864923035376,0.0018490124419718033,-0.18942033541061148
6.97,0.40339245622637526,-0.003825681708654583,-0.18693309176656378
6.980000000000004,0.8320333355689675,0.017572247054241125,-0.21103973123598332
6.989999999999998,1.517676741991798,0.0280445493786905,-0.19420569959443873
7.000000000000006,1.9600536823717631,0.04284910383632312,-0.20699572203182948
7.009999999999996,2.077535255009726,0.04056382607192591,-0.1856416205785448
7.019999999999998,2.3612533068543193,0.03275856816835629,-0.18734175528377012
7.03,2.057231351211058,0.029645729998171607,-0.1849477135252224
7.039999999999995,1.9145517640474061,0.05508774526964668,-0.18320061860462775
7.0500000000000025,1.387803781970978,0.0204653555145318,-0.1866783013412386
7.060000000000007,0.8241198962658572,-0.0001952147393392888,-0.21996804713126691
7.069999999999997,0.41453805628994145,0.006929931840526508,-0.1853242808489195
7.0799999999999965,-0.1158319759648566,-0.0068017106206163126,-0.20242126190321214
7.089999999999997,-0.47895057404837094,0.012303324539713206,-0.2080584285835453
7.1,-0.8395465944705598,-0.021207796590604004,-0.2080281937411593
7.110000000000001,-1.211344118578797,-0.020494689444013475,-0.21638877724402295
7.119999999999997,-1.6612328981742128,-0.0456711499245295,-0.17944470635911994
7.129999999999998,-2.136627482812116,-0.04901243652979729,-0.2482047526132092
7.139999999999999,-2.4114720977667203,-0.024770560107296495,-0.20535019024974832
7.1499999999999995,-2.5078727229759594,-0.07583127542377678,-0.2057729704919228
7.159999999999998,-1.964366472178909,-0.009052356168329603,-0.23189056163459518
7.170000000000002,-1.2888264036284165,-0.0278785877363576,-0.20885127422631802
7.18,-0.6586918861086927,-0.042269692133290085,-0.22741180955763465
7.190000000000003,-0.4018334504058384,-0.02104946511505009,-0.21999600475466383
7.199999999999994,-0.22659452579039574,0.001143900338225003,-0.20777090152635558
7.209999999999996,0.02659554168993621,0.011437182085578318,-0.2072402766446342
7.219999999999997,0.39665474390949207,-0.008997360912251891,-0.1828498249140686
7.230000000000005,0.92794433253994,0.046972262129580514,-0.20774484142173685
7.240000000000001,1.639625314519399,0.036125280084395216,-0.15563690321441373
7.2500000000000036,1.9881527162024353,0.03800339854304017,-0.18244545347862706
7.259999999999992,2.1925395572591584,0.05515610939505408,-0.18191494584399556
7.27,2.2074758775723526,0.024968720901838815,-0.2143582282460515
7.279999999999998,2.0598061400556995,0.06424667650316068,-0.21115007801697755
7.289999999999997,1.9008103014965643,0.039688969807345986,-0.18575139447357475
7.300000000000002,1.4534068009720658,0.006124463046429479,-0.18567270995469654
7.309999999999997,0.8345769412976682,0.03366988166158761,-0.1812875034721719
7.319999999999999,0.380263399094863,-0.004082285522592316,-0.16965636544169024
7.329999999999994,-0.12871506537541588,-0.006771690669672336,-0.20428725149288546
7.340000000000002,-0.48720694151251065,0.02295229115306847,-0.1739958365419137
7.350000000000004,-0.8270107499481684,-0.0157983489698952,-0.20071830242781097
7.360000000000001,-1.2621688559685353,-0.03384732614570978,-0.21425932566164882
7.369999999999996,-1.7405107234542154,-0.04891096732802638,-0.19856876760653216
7.379999999999996,-2.165512299230529,-0.047728937701169385,-0.2281738616783875
7.389999999999999,-2.4269792919875544,-0.07299290971089906,-0.2089106097660742
7.400000000000006,-2.5157225416999607,-0.0636388945135888,-0.24645963302086285
7.410000000000001,-1.9916572352956403,-0.01087062744227871,-0.18063507651318186
7.4199999999999955,-1.2332589179915714,-0.042486727662065085,-0.23238553238869733
7.4299999999999935,-0.6822669062224466,-0.01731922201206237,-0.2304996783392094
7.439999999999995,-0.3717968648683162,-0.03892081947110099,-0.20119925830297672
7.450000000000002,-0.2343400940567175,0.00010831741037329708,-0.21370737400134143
7.459999999999999,0.05810062688573247,0.0205990730966247,-0.1852107661246723
7.469999999999997,0.4757395357113415,-0.005227959426656496,-0.19936506280619015
7.479999999999994,0.9178278630306606,0.038571519084081886,-0.21369675423309686
7.489999999999995,1.628714485080586,0.03424186603998881,-0.1652672765121001
7.499999999999996,2.0262068723387925,0.037578058661845104,-0.19280272479450783
7.510000000000001,2.1771417085672993,0.04019985139229079,-0.1742006158717111
7.520000000000004,2.199175902312806,0.04535036969520131,-0.19637849681412786
7.529999999999996,2.0437756297330982,0.037224167611476566,-0.162221325053771
7.539999999999997,1.904751141355486,0.049689445573263095,-0.19726935487302588
7.549999999999998,1.4676650387096146,0.044467028356059785,-0.18858767928315268
7.560000000000003,0.8824596733991911,0.012742686523097506,-0.17447465011994018
7.570000000000004,0.3768999788672359,0.003128157360839408,-0.1668523509385475
7.580000000000002,-0.12268432903794235,-0.0031059835003434968,-0.17799123320823074
7.589999999999993,-0.539662549867334,-0.008600506337930306,-0.13288337559937005
7.599999999999996,-0.8899065003268491,-0.020266943039635804,-0.16817545685891916
7.6099999999999985,-1.2563480608595186,-0.03372027698797771,-0.18509267556693595
7.620000000000002,-1.7320189357392908,-0.04418634340101018,-0.18487981588710262
7.630000000000003,-2.1421086134496505,-0.0666263083368448,-0.1735428535615236
7.639999999999999,-2.3812619704222286,-0.0620360790597594,-0.15555874113661727
7.649999999999998,-2.583063275999359,-0.046899431135173,-0.142452215006705
7.66,-2.0010630934510107,-0.048241338653592224,-0.1457019715625282
7.669999999999997,-1.2013636979391766,-0.010640294196551582,-0.17382515557730746
7.680000000000001,-0.6691907878843768,-0.035639035976929384,-0.1637120945931312
7.690000000000006,-0.3894392356374772,-0.026645540375717917,-0.16304025488900994
7.6999999999999975,-0.2203436422842834,0.004972030868449983,-0.17152828187533176
7.710000000000004,0.025089071995153006,0.004521860141486715,-0.1241379439784157
7.7200000000000015,0.4672154581594788,-0.006309158748346994,-0.12025651607448429
7.729999999999998,0.9664280357105278,0.0259908078618746,-0.14563432645646737
7.740000000000003,1.6569066661114293,0.03480824422226236,-0.10624418432992684
7.75,2.0125178694202015,0.02233369043441658,-0.1265371090321748
7.760000000000003,2.1969221574468536,0.058406433873939595,-0.14193532288612237
7.770000000000003,2.1820527671303322,0.0195113255098799,-0.13124034085200922
7.78,2.108905340739622,0.033866130249959416,-0.12277241762863793
7.789999999999997,1.9349642765886217,0.0625233714596343,-0.11653820277177401
7.800000000000008,1.4332595415565543,0.026487124894059175,-0.13010598890758224
7.8100000000000005,0.8865744482308578,0.00488986837346361,-0.1414512057605902
7.819999999999999,0.37502682720528274,0.010782571208138995,-0.12459496293814681
7.829999999999998,-0.16413404048240285,0.0029552284331078125,-0.16105192539850327
7.840000000000002,-0.5126531639724952,-0.003322569575375295,-0.13879563667818978
7.849999999999998,-0.8698517337402333,-0.03855575310284849,-0.1704191461433277
7.859999999999992,-1.2925660372320376,-0.0354200624499977,-0.1850706818215692
7.870000000000001,-1.7609133831811254,-0.04960566266423769,-0.17547715198560723
7.879999999999996,-2.150393790976086,-0.056344773397788116,-0.20411407146965538
7.889999999999997,-2.440930970160973,-0.04901815061239112,-0.19048340856088158
7.899999999999998,-2.499430365555383,-0.070094087540567,-0.16991519939809419
7.910000000000001,-1.9570667971435762,-0.0190654701319184,-0.17063304453567243
7.919999999999999,-1.1187688299911416,-0.042824319560287795,-0.18457952915440748
7.9299999999999935,-0.608643716693947,-0.020568515579728112,-0.17651558724297192
7.940000000000001,-0.391879887603654,-0.02029086213616068,-0.15325604904222268
7.950000000000006,-0.2534293342018312,-0.003215060636352621,-0.1766064041581408
7.960000000000001,0.012976767648841602,0.0035237721787584595,-0.15234123883184447
7.9699999999999935,0.4598134465883711,0.009488695635375887,-0.13950788524131688
7.979999999999999,1.0542236945702899,0.03415697953019619,-0.18704988093527533
7.9900000000000055,1.6961447847082318,0.03472949986276879,-0.1359744288515422
8.000000000000002,2.076984732750951,0.05902433277122538,-0.15633512443742492
8.009999999999991,2.2300377327661884,0.02861998027264739,-0.12698750893322844
8.019999999999996,2.2027138691419057,0.044256746688167,-0.15252460286751493
8.030000000000001,2.0622729649570366,0.056839012889020685,-0.17247331578088024
8.039999999999994,1.9304653579306943,0.0442839327541113,-0.15119793683518395
8.05,1.4178321421341729,0.0344571704212047,-0.1460349712588221
8.060000000000002,0.898073856463257,0.022984634733997398,-0.17118963808228754
8.070000000000006,0.38686955209655616,-0.00039118934552609245,-0.15315076587623264
8.080000000000002,-0.17427790972299484,-0.015252793153405384,-0.15748988355705307
8.090000000000005,-0.5221926704074888,0.0029436845324158044,-0.14437967477590438
8.099999999999998,-0.9083218616827711,-0.0397961878305136,-0.19819370176840387
8.110000000000001,-1.35157807585538,-0.022961402666982097,-0.18770290375547488
8.120000000000005,-1.796186850736644,-0.039277198874146296,-0.1850560301115613
8.130000000000003,-2.1701683607349094,-0.049227748941354996,-0.19888889169701512
8.140000000000004,-2.4040994146832144,-0.05004233880816039,-0.19787078946382625
8.150000000000004,-2.511334008318217,-0.04940788839404346,-0.23089241203464916
8.159999999999997,-1.9764942641043117,-0.02265574897251219,-0.15674469077643036
8.17,-1.1410683300765527,-0.015044616500982702,-0.21340287615865675
8.180000000000001,-0.6048698477707665,-0.021651639942529607,-0.18617668368243764
8.19,-0.3677702078879877,-0.024209368371937986,-0.16020870241908722
8.2,-0.22404906758437151,-0.0008620656697606958,-0.1746777995674418
8.210000000000003,0.09930914917830258,-0.0008365720007431065,-0.13198652445433878
8.220000000000006,0.4594461524024621,-0.007674238502651204,-0.1337868846976441
8.230000000000006,1.0379368538232894,0.024517324028230893,-0.13282832021814434
8.239999999999998,1.6923429341024425,0.03700373229491111,-0.10106707740090412
8.249999999999996,2.0407138157064497,0.02961000250379329,-0.11398769085182035
8.259999999999998,2.2803578180460047,0.05203337655918289,-0.0889387067265935
8.27,2.172445364443842,0.030707137608497928,-0.09246844825439988
8.280000000000001,2.1014106645360786,0.03153128026672233,-0.10995759671776528
8.29,1.9788368609127596,0.05157522780666371,-0.08483359095763245
8.299999999999999,1.4453108202504428,0.023358345115888485,-0.07849821389885177
8.310000000000004,0.8865885076662916,0.004736779436580877,-0.11193045850531518
8.32,0.3263475269347347,-0.008982683252831596,-0.124899400462638
8.33,-0.16514357710767222,-0.0017142503279446903,-0.11755596597279737
8.339999999999995,-0.5416635118185643,-0.005131193996309199,-0.09231272497804503
8.350000000000001,-0.8977775385817556,-0.03338570079384819,-0.1285290383594613
8.360000000000001,-1.333857508728627,-0.02572745642504858,-0.13611606226141185
8.370000000000001,-1.7737514734913145,-0.06717305808110158,-0.14240452005387153
8.380000000000006,-2.108565961755144,-0.0534126944863096,-0.1452019895166352
8.390000000000002,-2.4305634044307936,-0.0535387649924636,-0.1651250477895036
8.400000000000004,-2.563547275900175,-0.0649180591764324,-0.15820800132346932
8.410000000000004,-1.9275840564327853,-0.03287396942259446,-0.1614150956936704
8.419999999999996,-1.1669434398498242,-0.022043912716174896,-0.1392049610368927
8.429999999999998,-0.64190010353228,-0.032417708480432704,-0.13353047029019458
8.439999999999998,-0.32988312963585853,-0.01428235905426672,-0.15662509891467877
8.450000000000003,-0.22391217191569426,-0.005700829636880803,-0.15651024989224668
8.459999999999996,0.06233130790667116,0.001042073881721718,-0.13846666246516032
8.469999999999997,0.5440927350769907,0.00882439919819841,-0.12487215120187228
8.479999999999999,1.0230185914640588,0.03559533884672253,-0.1152937830366481
8.489999999999997,1.7123903375949316,0.022526362348762013,-0.10387429860327875
8.499999999999998,2.0735779641035976,0.05202125669698902,-0.12039363970946416
8.510000000000002,2.233540166937236,0.06464292182674329,-0.12391497807161939
8.520000000000001,2.1910689418852445,0.02206700668747702,-0.13427040205064986
8.52999999999999,2.113388010384846,0.05271680151239529,-0.12788445589296124
8.54,1.9383089831131273,0.0418781930712726,-0.10559106910920124
8.549999999999999,1.4667539289038685,0.025586507334603673,-0.12840625826327612
8.560000000000002,0.8485065225454669,0.016222535228696825,-0.1317006720425539
8.569999999999997,0.22911683896142404,0.01349648528080791,-0.13929629018860648
8.580000000000004,-0.26628049940747966,0.012627892190221495,-0.1400772063423717
8.59,-0.5377424202371323,0.00028001469235529303,-0.1389111918850329
8.599999999999994,-0.8934182670687407,-0.027204551893133335,-0.15423808610328724
8.609999999999996,-1.3624684538483602,-0.014866821191404303,-0.1954684960537905
8.619999999999996,-1.8536279483519036,-0.050384510101541206,-0.18446413903531722
8.629999999999999,-2.1741028622613774,-0.03169195920469,-0.18547269223864268
8.639999999999999,-2.4576016831828436,-0.04989098047849569,-0.17312653946081197
8.650000000000004,-2.5661071346662903,-0.046522688238909184,-0.21347580827549575
8.659999999999998,-1.935161141549663,-0.017317192115068405,-0.19487682022768696
8.669999999999998,-1.0748804055280898,-0.023176436901004304,-0.1804182021116429
8.679999999999993,-0.5535892988662517,-0.01322768587042101,-0.19358369321748353
8.689999999999998,-0.3506822766077959,0.0016793534226069913,-0.16597180115637744
8.699999999999998,-0.20255190974108814,0.016344714507175617,-0.1730453550642376
8.71,0.0885386878335437,0.0060924592034635044,-0.1498490791189638
8.719999999999994,0.5243839296775658,-0.003084557928353996,-0.16391967872407437
8.729999999999997,1.0715439056550795,0.0371578345934937,-0.1761061596208853
8.740000000000002,1.7159342759629874,0.034411239883573086,-0.171441777980579
8.75,2.0863024017572966,0.051064517232514185,-0.14855370732542456
8.76,2.257962943472397,0.024360588083322997,-0.12727204408240447
8.769999999999998,2.188056386614703,0.052938304455001785,-0.17272856726219835
8.78,2.0698986859097346,0.0295891784196394,-0.15800919794828508
8.79,1.9721635116797107,0.04153979441336189,-0.13988976294768218
8.799999999999997,1.3961219345600062,0.024863727454062894,-0.15501399774110242
8.810000000000006,0.8025012594592988,0.027459317298020692,-0.1628418123708322
8.819999999999999,0.2501976723646193,-0.006099990311276097,-0.15559689622140882
8.830000000000002,-0.2724514200928121,0.005375245310831401,-0.14608931189852095
8.840000000000002,-0.5303820630199307,-0.009597730453828798,-0.16009628977832888
8.849999999999993,-0.9311928510983302,-0.029947844690856273,-0.22112857318562504
8.86,-1.3646417684828247,-0.02655071855290308,-0.19872930340566675
8.869999999999997,-1.854633565764643,-0.043515359640970815,-0.20621098646394198
8.879999999999995,-2.1868655290398333,-0.0458916396388149,-0.2198327321343494
8.89,-2.5166469915513976,-0.041384091567938826,-0.2028097684060244
8.900000000000002,-2.5946864577835047,-0.0497702139447416,-0.19561231356876396
8.910000000000004,-1.8713880902345539,-0.0366770668780986,-0.19348105965355142
8.919999999999993,-1.092356642772939,-0.010879333618919827,-0.22379792252931535
8.929999999999993,-0.5611082309850859,-0.020074535601892513,-0.22265790423809118
8.939999999999996,-0.32402253096340106,-0.022689086334997312,-0.20175520954857926
8.95,-0.15664308993977022,0.0009360804481553919,-0.1890601444112739
8.959999999999997,0.07194378314140983,0.012603970827145096,-0.15821189971013994
8.969999999999999,0.5121484025171426,0.015925566743665614,-0.19595841523774415
8.98,1.08215989755315,0.056167592176771204,-0.19502710812241023
8.989999999999995,1.7054636945848445,0.03912228143727564,-0.1515475109675463
9.000000000000005,2.1164245582236583,0.027327127512120415,-0.1852257618095328
9.009999999999994,2.2903619711785064,0.04241093403007298,-0.16597365308402065
9.019999999999996,2.200862173659207,0.032123004717597686,-0.18375625679787475
9.030000000000001,2.0915935501495104,0.046261217865839414,-0.16172530059489534
9.039999999999997,1.953907981494501,0.06471916082083402,-0.13204891379835698
9.05,1.4251243224239587,0.015887331502375503,-0.16202350981085212
9.059999999999999,0.779416729571433,0.006415119415164006,-0.17092217586919206
9.069999999999991,0.20893815127380289,0.009325435718532813,-0.20275907800928286
9.079999999999998,-0.35031392166296804,0.004527136384130787,-0.1894050525332916
9.089999999999998,-0.6975180398495239,-0.0009202068597783095,-0.17081028019491
9.099999999999993,-1.1417888937941865,-0.04238787073782529,-0.20523694336164572
9.109999999999998,-1.6937393490800596,-0.043498870785288093,-0.1972233912279804
9.119999999999994,-1.9445649688802011,-0.05629041193639549,-0.19571755595204687
9.13,-2.1719969955955616,-0.034696203039669894,-0.2113188837129251
9.139999999999999,-2.4501909578579584,-0.03761173957150732,-0.20406472923501756
9.15,-2.2123127044830815,-0.05453627427455288,-0.20856068144977857
9.160000000000004,-1.3809656549254414,-0.009390132295429302,-0.21531559074639742
9.17,-0.6208339565146908,-0.03322881225099001,-0.20229948984891455
9.179999999999998,-0.20482178709143584,-0.013078456524227986,-0.20166378515710037
9.189999999999998,-0.06016408271001141,-0.005328358952368497,-0.21984174697978226
9.199999999999996,0.03637547673561013,0.01717896050026801,-0.18113084276042413
9.209999999999999,0.2879848001528023,0.01334650283513647,-0.1724159498627942
9.22,0.6247702374047356,0.016394924688474432,-0.19780213268754387
9.229999999999995,1.1855417245899524,0.02547353454885089,-0.19612018436979148
9.239999999999997,1.604205698332173,0.023165787729294188,-0.15330287409896737
9.25,1.621330682182391,0.0224885076417274,-0.17415175291207788
9.259999999999998,1.532108305073138,0.03557179135614599,-0.16431241364403604
9.270000000000001,1.4445371287342068,0.025233803464864597,-0.2030347227356111
9.280000000000003,1.2662460856358964,0.03343553331217272,-0.1946836777269913
9.289999999999992,1.1628195295790167,0.026430800880333834,-0.16732960289292637
9.299999999999997,0.7553331149519421,0.010689274070313398,-0.22680941012305275
9.310000000000002,0.11354923200386355,-3.964205624523615e-05,-0.20617592976658777
9.319999999999997,-0.2913606088606962,0.020628211130957193,-0.18109691867925845
9.329999999999995,-0.5063487557902119,-0.004855441826564235,-0.22253429637683977
9.33999999999999,-0.7206072595723022,-0.02752388963668678,-0.19701813957517791
9.349999999999994,-0.7863170469608232,-0.011304436051957181,-0.21192674000366216
9.359999999999992,-1.0220198549935684,-0.03949276576927011,-0.20833653908272373
9.369999999999996,-1.161504932374479,-0.027132292765683776,-0.22143200002051028
9.379999999999997,-1.3519146141665852,-0.028016899762568877,-0.2230302265491054
9.389999999999997,-1.1485906565530404,-0.013482905290795096,-0.22150942347131392
9.399999999999999,-0.7187510627967376,-0.003117798308031222,-0.21193014385174555
9.409999999999998,-0.3169019710124238,-0.0212782977090529,-0.2091844425555816
9.419999999999998,-0.03516316314023194,-0.0007277311779450967,-0.21929952754917853
9.429999999999993,0.022688057671853692,-0.010602400240814389,-0.2077859313346763
9.43999999999999,0.02196880033609026,-0.00614022262402679,-0.20705927514242256
9.45,0.1302307166377065,0.01958635388247389,-0.20297717486574002
9.459999999999996,0.35287924325129455,0.012005527360753804,-0.19819458386880404
9.469999999999999,0.552776900279841,0.000849234750562016,-0.19448294683989134
9.480000000000004,0.6476732576913853,0.004079488258626996,-0.20563437737981857
9.489999999999998,0.6356226788838661,0.020679724840573184,-0.21245061540210508
9.499999999999996,0.5265403186130247,0.0016954266195537038,-0.1795623039202564
9.509999999999994,0.4035551543409537,0.013892359250517511,-0.19102874170501347
9.519999999999996,0.3394539571086985,0.010288195054117825,-0.20119314727278853
9.529999999999994,0.22922053491573552,0.012987150654495011,-0.20637619458877865
9.539999999999997,0.04997071908851083,0.0013342972969711063,-0.21586526626062044
9.549999999999995,-0.11640621777689962,-0.010925152752609602,-0.2092746092952726
9.559999999999993,-0.22036777978406957,-0.005520149270539701,-0.2411966899606729
9.569999999999999,-0.2982251645341164,-0.0110761696956862,-0.20420870564564034
9.579999999999995,-0.26402916742361077,-0.013843036190205504,-0.2171284365038786
9.589999999999993,-0.1515474439770601,-0.017420030474255922,-0.20030834150797966
9.6,-0.01864905800938916,0.010116287982558923,-0.1995877553262604
9.610000000000001,0.020998872288256577,-0.0045464403005210105,-0.20614593456148672
9.620000000000005,-0.0035995399317319465,-0.0013300366319416981,-0.20390812644811157
9.629999999999997,-0.028190821212606274,-0.004928887929427795,-0.223356704050922
9.639999999999999,-0.016157579312879693,0.0006494342043294079,-0.225633121153849
9.649999999999995,-0.027744450642145292,0.011816502889338191,-0.21272423456416775
9.66,-0.0038206704862017568,-0.0046219461088763914,-0.19745384070794914
9.669999999999998,-0.0019903903940142217,0.0030960010032967072,-0.21345509803337467
9.679999999999996,-0.005620576317198814,0.011212530918696796,-0.21486300541243278
9.68999999999999,0.00019796522795781488,0.0061062929155141065,-0.20212623932307208
9.699999999999989,-0.007443561198549134,-0.01426749855161762,-0.2089272111116864
9.709999999999997,-0.024453563584102302,0.0056947631915872775,-0.24640122567404737
