Time (s),Acceleration x (m/s^2),Acceleration y (m/s^2),Acceleration z (m/s^2)
5.429999999999998,0.08373011778423153,0.018728243265932115,-0.16842641370668998
5.440000000000001,0.2545624746043503,0.02561389473026809,-0.15207206613422874
5.449999999999999,0.2562266745618481,0.008083344229047818,-0.16950573481329115
5.460000000000001,-0.06762444699451908,0.015107675822883204,-0.18025855215979752
5.4700000000000015,-0.5075864312782189,-0.00370830698120491,-0.17432087935658863
5.4799999999999995,-0.8596774385162206,-0.002864778869511693,-0.17063853742087304
5.490000000000004,-0.9077332673604127,-0.00978018804191162,-0.1881251853696176
5.499999999999994,-0.38009311536269696,0.0042006462429943,-0.15947543303768102
5.51,0.334245963403127,0.022088660252524393,-0.15533940856648357
5.519999999999996,1.0128861625296688,0.0240776430671905,-0.15717221802244205
5.5300000000000065,1.5324382162619856,0.05054817452457879,-0.14201005817911155
5.54,1.45874531086826,0.04725413418339202,-0.15280770997271104
5.549999999999997,1.207885146673501,0.02120433807386803,-0.15370222478516873
5.560000000000001,0.2298521156111068,0.018798458401783114,-0.1658466341195394
5.569999999999999,-0.6359836477976802,-0.04092512175198731,-0.1577263829080677
5.58,-1.677072007750119,-0.0028397451867336956,-0.1845057771069533
5.590000000000002,-2.593992884818161,-0.0613565420310255,-0.19628100199911683
5.599999999999995,-2.4845474309514133,-0.025142949346733393,-0.18357080000227907
5.61,-1.4420083567699984,-0.020806743411883023,-0.17664111960919074
5.619999999999999,-0.33409705445659055,0.0017945011805445867,-0.19956725261134894
5.629999999999998,0.7669278602115998,0.008766301531366793,-0.14321135506821894
5.639999999999997,1.8271009512682177,0.025313363910489012,-0.11959604417163842
5.649999999999997,2.449577496093049,0.065052912016089,-0.16189788547176007
5.659999999999996,2.7789865724318488,0.0456554490554533,-0.10259413559322308
5.67,2.353842753816682,0.0544940906992096,-0.10887688468652285
5.6800000000000015,0.9769257312080573,0.014633686189530499,-0.19071332968499868
5.690000000000001,-0.5649684874150185,-0.03194381963096401,-0.11988150706472582
5.700000000000002,-2.1197422809848936,-0.016578723622533487,-0.14930837889734577
5.709999999999998,-3.5124655191378813,-0.0819216490440727,-0.2149258508020523
5.719999999999997,-3.73127479609953,-0.06833905995982141,-0.15699136177200526
5.73,-2.461090732587897,-0.024983779267579796,-0.1780802361327694
5.739999999999997,-0.7589317213610335,-0.017781345554986602,-0.17340973728982984
5.749999999999998,0.48631735792821107,-0.014088743798781994,-0.10389149021221417
5.759999999999999,1.8176234172035335,-0.007178191819536408,-0.0881936976049812
5.769999999999999,2.6767711563795342,0.08790454146177598,-0.07777089326656132
5.779999999999997,2.9401429756185777,0.0408634737035766,-0.04535936555762731
5.79,2.608290576208004,0.05596391155990919,-0.0837620287635071
5.799999999999997,1.5653832472934595,0.03400170899037841,-0.07854539488619224
5.810000000000003,-0.06714222636600158,-0.027500727539075308,-0.08175636434319741
5.819999999999999,-1.4452519422384278,-0.04137245957967939,-0.0990717766267688
5.829999999999998,-2.848221778016237,-0.07024494967256048,-0.16998581456924663
5.84,-3.73148184868254,-0.10327328274646892,-0.12055912373948328
5.849999999999999,-3.2257636809991577,-0.020307663873309404,-0.11928135797110598
5.859999999999997,-1.675973887983221,-0.045192971848076906,-0.14479331051754601
5.87,-0.19362820423885796,-0.0151163980870315,-0.13185238297555882
5.8799999999999955,1.064245230278197,-0.0284466253671223,-0.07279681166898763
5.889999999999998,2.2242845853673163,0.0473734918545459,-0.07471009577137244
5.8999999999999995,2.803873231563341,0.053622103365687186,-0.06063410084626068
5.9099999999999975,2.8747633839104103,0.0450035174150093,-0.07294238002921169
5.920000000000001,2.1632439232185874,0.03616263612924701,-0.09444992734592432
5.9300000000000015,0.8318456182833126,0.006136525287172805,-0.06610560256639095
5.939999999999999,-0.8547687560376459,-0.047322753349342904,-0.0864249061299454
5.950000000000003,-2.1187191930875073,-0.0382807400407641,-0.13493757790494115
5.959999999999992,-3.4840899983976747,-0.0739383992075135,-0.15860825679700247
5.97,-3.7174926995769275,-0.0767359001865859,-0.10656876823488688
5.9799999999999995,-2.4775502108641367,-0.0023231555474787957,-0.15354363216148692
5.990000000000006,-0.9767513260636312,-0.03730794369667721,-0.1725737547633151
6.000000000000003,0.3577360559596362,0.0016010247617437923,-0.11072033437573986
6.009999999999997,1.5999359878446828,-0.00874192961044162,-0.1043537424842775
6.020000000000003,2.5826759304717695,0.06602859162557023,-0.06368670676139579
6.030000000000001,2.897040756440299,0.06131524166173331,-0.04764414224037395
6.039999999999998,2.6222040173814447,0.03404810669783769,-0.11923121279849726
6.050000000000001,1.5355000727745582,0.052817870878239505,-0.1387270580178373
6.059999999999997,-0.0063175683533538704,-0.011427113261837006,-0.07972924676336153
6.069999999999999,-1.6840550368938905,-0.05393910634142719,-0.10289211523939908
6.08,-2.8704926142989735,-0.06437263597016891,-0.19049582858065287
6.089999999999999,-3.789534469915677,-0.054693410309939315,-0.17055744488751776
6.099999999999999,-3.256370474682417,-0.04049293379360911,-0.09784923525427389
6.11,-1.787019336269041,-0.024178941800093213,-0.16145722012785124
6.1199999999999966,-0.37896208841033274,-0.022052434834325806,-0.13954806513404722
6.130000000000001,0.9233811828294426,0.005457861674228701,-0.06697771686880244
6.140000000000001,2.148552914518369,0.05234068838983861,-0.13712601583896467
6.150000000000001,2.760954121117063,0.086636124640747,-0.0589108875307768
6.160000000000002,2.7623973501677384,0.026226856549514718,-0.09045288301544228
6.169999999999999,2.1199239847992515,0.02530301862878271,-0.17116239295025787
6.179999999999999,0.6532478879012285,0.029358479507516404,-0.15740089964050558
6.190000000000004,-0.84874349549257,-0.008073700012300202,-0.08365485702618326
6.1999999999999975,-2.396897571625024,-0.0405004972054393,-0.16732641126462275
6.210000000000002,-3.45349857826155,-0.0986446197634076,-0.18852611262910773
6.220000000000001,-3.7598147195974483,-0.028056581515622014,-0.14091010380203173
6.23,-2.5447365838597933,-0.01108619975631001,-0.14053924437824802
6.239999999999998,-1.1917332585465463,-0.044266810919629716,-0.21675465788947193
6.2500000000000036,0.10017290402548386,0.007148343230572703,-0.10936733464316928
6.259999999999996,1.3671886487621627,0.01833084275052621,-0.07457658490949445
6.270000000000003,2.5029026148061373,0.04311906565988361,-0.1413299508102284
6.279999999999998,2.6691349015433405,0.058405348458628575,-0.044970422111384224
6.289999999999998,2.4475859037780037,0.030429070575352497,-0.09630582509530981
6.300000000000001,1.35009186322225,0.026428113256535917,-0.17429663471245177
6.3100000000000005,-0.18048249743409328,0.007375144410645107,-0.10235662888805262
6.3199999999999985,-1.72265817455428,-0.03227235962300648,-0.11788285155009212
6.330000000000001,-3.0841747012159737,-0.05526518796680169,-0.18088181352893307
6.3399999999999945,-3.872636213851259,-0.11174319359720401,-0.1542816970943087
6.35,-3.264282570416588,-0.0048370821105154236,-0.14047708159946945
6.36,-1.8000766878609489,-0.02136342444525341,-0.15930468285642216
6.369999999999999,-0.6136267427979158,-0.023573346158900336,-0.2168002029022734
6.380000000000002,0.7726615648651987,0.023880127413406393,-0.10777019546506594
6.390000000000003,2.05501761725363,0.03076080718867768,-0.1319711817508274
6.3999999999999995,2.6418958214610644,0.06230268127375442,-0.11800252979012282
6.410000000000002,2.563138093036952,0.031046066266809703,-0.041947106829743085
6.419999999999992,1.9732037242133016,0.0439557721976065,-0.14140370937058244
6.429999999999999,0.6799860745515904,0.01785653310946161,-0.1884879008870779
6.439999999999998,-0.8935462184323113,-0.0303607277099905,-0.11238820670701213
6.450000000000004,-2.3694807712538366,-0.028081821161977688,-0.15419501253261678
6.459999999999999,-3.5803597393416267,-0.09681389388673181,-0.18774087928470987
6.469999999999997,-3.8386605424733724,-0.07268979223611281,-0.1222951417197511
6.48,-2.572553976304312,-0.010574425402306615,-0.1555755473311422
6.489999999999999,-1.062410321895547,-0.04216274449779072,-0.207873634134353
6.5,0.004234737429363919,0.01849444780354291,-0.192610785482973
6.510000000000002,1.425552824907802,0.006707679145813793,-0.11465851244829271
6.519999999999995,2.470292746284577,0.0771141849572154,-0.13674204091724873
6.53,2.653643778941427,0.076881857309031,-0.08033166296054438
6.54,2.2912577495196764,0.010197460680696206,-0.06272655067942286
6.549999999999999,1.3927715270386238,0.034309351836365506,-0.16984937679249812
6.559999999999998,-0.1202279950818329,-0.002085242335099402,-0.17358672403636
6.569999999999999,-1.6828068092450892,-0.009129275722913296,-0.11370439013748469
6.579999999999996,-3.1169402947009477,-0.08163869613070633,-0.20610258657782868
6.5900000000000025,-3.9556280110041064,-0.10940307490212181,-0.1495016945927913
6.599999999999999,-3.3899190425881707,0.002614707081550811,-0.1224254722906001
6.610000000000004,-1.8849084096129771,-0.052914210538689,-0.15968288797232222
6.62,-0.6639590730446632,-0.041659531600536405,-0.2083430574678992
6.629999999999999,0.4669796086393931,0.023369025433282304,-0.12380315490343725
6.639999999999997,1.887091481129687,0.039182991675053916,-0.14045445577981833
6.650000000000003,2.506712143672413,0.06446945525822222,-0.12105738450469983
6.659999999999998,2.376083193324458,0.05478511524725552,-0.11591786250326729
6.669999999999998,1.7420058956626072,0.02930556130165467,-0.06495138859687749
6.68,0.5952492741099601,0.024234987461840607,-0.2198931913597701
6.690000000000004,-0.9375510145930362,-0.0336143929474962,-0.1733798964091354
6.6999999999999975,-2.467888822968368,-0.014347782599921397,-0.1394438011378841
6.710000000000004,-3.7282249236929936,-0.09399813512679939,-0.18888789840852427
6.719999999999994,-3.924535201901664,-0.08238511086409958,-0.12983034103220661
6.730000000000003,-2.6874175879888456,0.026866806748883493,-0.11242823021860503
6.739999999999998,-1.2074848159474012,-0.054736170654902924,-0.16639444831740482
6.75,-0.11502067996783606,-0.0007492966458496138,-0.22173660649334845
6.76,1.2004375411185995,0.0255562366853033,-0.16277533298857916
6.7700000000000005,2.405820618001063,0.0635485150926014,-0.13858446277249778
6.779999999999998,2.5852754365014654,0.0661846685744788,-0.12202848255561675
6.790000000000002,2.1424213821884397,0.0370152974883208,-0.12928235856912515
6.799999999999995,1.164349356392132,0.024946183427103294,-0.08709747316764171
6.809999999999998,-0.06303526636240474,-0.011198867159029988,-0.21712885089618766
6.819999999999999,-1.683570907442651,-0.036428869997205696,-0.16372497074623438
6.829999999999998,-3.0326395678561298,-0.0299023958695194,-0.18054814937138713
6.8400000000000025,-4.064690482502498,-0.11906889622521027,-0.17477774587037642
6.850000000000004,-3.401560093118925,-0.05006578746444641,-0.12408500239898142
6.8599999999999985,-1.88423765447466,-0.011865765489483092,-0.12256818940188122
6.870000000000003,-0.5759740508097563,-0.05517741659804439,-0.16024038598246151
6.879999999999993,0.4557382196341124,0.01517221252351001,-0.148424222551234
6.89,1.9006003029503205,0.04529573166373298,-0.1510570501589976
6.899999999999996,2.5785892961677805,0.06650550710827899,-0.0684041849026908
6.910000000000005,2.440953760396096,0.019601296651666208,-0.06518872910903044
6.920000000000001,1.6875818098406261,0.0077944797812501115,-0.055113102492810526
6.929999999999997,0.62891277183303,0.009807634722645725,-0.08474230430280544
6.940000000000001,-0.8013245759598009,-0.0446281334470805,-0.1967532959262105
6.95,-2.3042881360603737,-0.0349036599915488,-0.11863944113107201
6.960000000000001,-3.613677407112245,-0.0855610809095009,-0.15080051548459747
6.9700000000000015,-3.9285297396637744,-0.0907648870089333,-0.10446887628638132
6.979999999999997,-2.726167562039308,-0.016348830860613593,-0.06925050919827347
6.989999999999999,-1.2748630386265714,-0.07048379555128961,-0.11248911426831873
7.0,-0.13231028026157224,-0.016010495010220498,-0.10094455649275975
7.01,1.0337081162817168,0.03774095178980949,-0.07446066533499114
7.019999999999999,2.3159598595844413,0.055875786589702006,-0.11563291889846719
7.03,2.543768954110081,0.0570467513834344,-0.037218427798836905
7.039999999999998,2.091655831255456,0.0336439627762577,-0.08260875002742887
7.050000000000002,1.0040577935860453,0.002522718223974097,-0.016484555181809427
7.06,-0.07597444940982506,0.0013069510734595026,-0.11872856744170525
7.070000000000002,-1.6023160771465068,-0.04312184622209431,-0.1479725087303275
7.080000000000001,-3.0593139298831975,-0.048990428637884796,-0.11915841569814213
7.09,-4.05332189597156,-0.12973844981487492,-0.14727595271194013
7.099999999999998,-3.3884037298413423,-0.032622146819299806,-0.11099449079825548
7.110000000000003,-1.9494939806174894,-0.0139750920929131,-0.08137082998019204
7.119999999999997,-0.6186847572287612,-0.06285749758631799,-0.12254887754751967
7.130000000000002,0.47188646257434774,-0.015903027229931487,-0.13622656269497166
7.14,1.7622379714913785,0.0487445038117656,-0.10629411377357148
7.150000000000002,2.557979936918185,0.037548350837321394,-0.07385871443427318
7.160000000000001,2.417364425134603,0.04768347404018909,-0.055748998133669
7.1700000000000035,1.6942685377738078,0.0370752997433623,-0.0774525428017199
7.179999999999997,0.475688818740889,-0.010734216474112811,-0.04901414147528878
7.190000000000004,-0.7541989588721203,-0.0444423446462003,-0.1923176786266345
7.199999999999999,-2.338222701305562,-0.054727034589338794,-0.13984920301705722
7.210000000000001,-3.5874895628386803,-0.037712043230306705,-0.1755267721681496
7.22,-3.9823732238011456,-0.11868105595483133,-0.16005677145975927
7.2299999999999995,-2.5840897789016486,-0.03230528612767681,-0.09306796080023208
7.239999999999999,-1.3149425704819115,-0.036798230785623,-0.09477536899069712
7.250000000000003,-0.16371422252259218,-0.0407675393196737,-0.12528716757906677
7.259999999999997,1.0176202050771312,0.041549431984782705,-0.1023910159496766
7.270000000000001,2.1831878878139257,0.06008990575506929,-0.1505041487748273
7.28,2.4302509479566865,0.0363591522004829,-0.040154886165665156
7.289999999999999,2.1067802887592926,0.0371006704130072,-0.10167740124238507
7.300000000000004,0.9798074510149236,0.058213809990946,-0.05346630640316692
7.3100000000000005,-0.21229973458481413,-0.013350723300176393,-0.10040815606819871
7.320000000000001,-1.590321139411088,-0.06100969830166871,-0.1943039038577231
7.3300000000000045,-3.1013473727989975,-0.05158132797341642,-0.15569407087154277
7.3399999999999945,-4.097599357154179,-0.08348541709710092,-0.15167887870089614
7.35,-3.4565219145670465,-0.05183159955803288,-0.13968767864847884
7.359999999999995,-1.933669729428745,-0.0417168192916778,-0.12342823915225211
7.3700000000000045,-0.8328486148839773,-0.04571234109035892,-0.11691228317558265
7.380000000000001,0.31582313951476443,0.018713423294483302,-0.08428574365144892
7.389999999999997,1.6479378659747195,0.0360256460981495,-0.12551040865804045
7.400000000000001,2.3703488257602077,0.07451151965829411,-0.0828646512760476
7.409999999999999,2.2146379292476492,0.021114641754106895,-0.09600104925941912
7.42,1.5496962200814155,0.03563056134169431,-0.09608814483770485
7.4300000000000015,0.31315821026653723,0.016203977738333597,-0.033775389072052985
7.439999999999996,-0.9152961662148443,-0.0194878334324041,-0.13584233899725595
7.449999999999999,-2.3440284261077924,-0.03825679857671851,-0.18702751438374124
7.460000000000002,-3.7812146399770836,-0.06831575449965971,-0.17981289476431445
7.47,-4.096535181652133,-0.0644682488546626,-0.16587444951532318
7.48,-2.827756902180236,-0.0075803536144074144,-0.1396602714874752
7.489999999999999,-1.3680176505281283,-0.05715250502462451,-0.10436993284419074
7.499999999999997,-0.33483636610301415,-0.01477659885043481,-0.15414559943615277
7.510000000000002,0.9424138980881014,0.04050164848280461,-0.09159111268774475
7.520000000000001,2.066973559621975,0.0604404386665165,-0.16035229585290775
7.530000000000001,2.328376128816586,0.0561826396810585,-0.04477404636957752
7.54,1.8802707835348282,0.04405103959527172,-0.13611059089431862
7.549999999999999,0.8453771140603493,0.021037379942322316,-0.06990465972641634
7.56,-0.3953353654555608,-0.014004778413523317,-0.11370987093405897
7.570000000000002,-1.8157324345130332,-0.055696162233756286,-0.18933687200933896
7.579999999999997,-3.119028135911515,-0.05963134806616497,-0.18672109160326913
7.590000000000001,-4.190812238619288,-0.07517649092246871,-0.16215945865445988
7.600000000000001,-3.622066038206515,-0.045360089754084607,-0.16221410730202754
7.610000000000001,-1.9968669082230068,-0.021516874270472112,-0.15445501076568174
7.62,-0.7151009861984825,-0.037769732901550605,-0.10246931275736118
7.6300000000000034,0.30220369361481375,0.019104714851485304,-0.12126222406448407
7.639999999999997,1.6806133914972825,0.04606185326001561,-0.1565511730686812
7.650000000000003,2.356619792096628,0.05171825576307279,-0.12653042004060952
7.659999999999998,2.255863586096962,0.03626921184224799,-0.049241270598632904
7.67,1.5573937448552941,0.058932817295779025,-0.15025363040041984
7.679999999999999,0.3212175226363937,0.01255069019095702,-0.06797536258925696
7.689999999999999,-1.0485480784601262,-0.04529940990036009,-0.19526643351203474
7.699999999999999,-2.4330183918358332,-0.0519950750502688,-0.17999628501806464
7.710000000000002,-3.6451357802232693,-0.05273009475675161,-0.21718186634405431
7.719999999999997,-3.9784955130751136,-0.04683270570046681,-0.1767756893633502
7.73,-2.6984662594357482,-0.012759384981580314,-0.19047086418679618
7.739999999999999,-1.2383380788510208,-0.0647481661205343,-0.16489518693418714
7.749999999999998,-0.20627852236082478,-0.03375124064900613,-0.11880608928204608
7.760000000000003,0.9880926528309564,0.008204343120815881,-0.0908148265535689
7.7700000000000005,2.301529015480749,0.06098717443031659,-0.1596514083900421
7.78,2.4370331170772284,0.04270519098608731,-0.08393594142787376
7.7900000000000045,2.087343085568482,0.0367620578643567,-0.11584273562581468
7.7999999999999945,0.844600818747341,0.05542904954002681,-0.11229802888894604
7.81,-0.2468515940015368,-0.0293811801419552,-0.10645620767974193
7.819999999999996,-1.70463435314782,-0.0485959725014506,-0.20778956391216785
7.830000000000002,-3.0006948368457,-0.035438083063130614,-0.1898875192925112
7.84,-3.9811325734232206,-0.09201013771008722,-0.18931695649843044
7.849999999999995,-3.4088361054256695,0.0164076887301856,-0.17951490666049152
7.860000000000001,-1.928175290339539,-0.028156968186517223,-0.1707624692152538
7.87,-0.5913076084711215,-0.05910956823774331,-0.17091847253669706
7.880000000000001,0.40039252833615885,0.009037988690888317,-0.1422930879239855
7.890000000000002,1.7660375183901567,0.023772075292154894,-0.1338265749874987
7.899999999999996,2.5290379206281326,0.04317511261299221,-0.14851081177417316
7.909999999999998,2.35150375567797,0.021823405772192397,-0.11006745645585887
7.920000000000001,1.659446504552975,0.04963006953732943,-0.13980805039988697
7.93,0.3168455129747321,0.0112126870699043,-0.07410424195257644
7.940000000000001,-0.8862619247180978,-0.06343734279683759,-0.16242414716529519
7.95,-2.377848236840989,-0.043938733729835894,-0.20115530639045168
7.959999999999996,-3.558560452967958,-0.0812007905144251,-0.22070301576191936
7.970000000000003,-3.8681880270714104,-0.07144215146712131,-0.16706509186863708
7.980000000000002,-2.645426306300219,0.004647231568415805,-0.1589811638805364
7.990000000000002,-1.27564411389809,-0.054959049188170205,-0.1529592949302664
8.000000000000002,-0.08026438619542393,-0.006671857595853306,-0.12571916594973953
8.01,1.2326948906385666,0.03376909452814539,-0.15835920362001052
8.02,2.3197750182656374,0.06630026331595042,-0.153330994777161
8.030000000000001,2.344270507597868,0.02995004172565742,-0.06975524752339206
8.039999999999997,2.1342781419772505,0.042102280371555015,-0.11066246699803207
8.049999999999999,1.0198736262971047,0.026883578396048696,-0.07758183466010839
8.060000000000004,-0.23580643024122516,-0.029381683377862504,-0.1018104644717784
8.070000000000002,-1.5784406718163722,-0.04929140493225299,-0.16965542829703056
8.080000000000002,-2.9861550256457297,-0.0597524089308699,-0.15494633087782786
8.090000000000005,-3.872961495598606,-0.06812067752599528,-0.14885790676937627
8.099999999999998,-3.3246299000920816,-0.04920530880601139,-0.10112860220004534
8.110000000000005,-1.9220575097920836,-0.0309214816732013,-0.14265147876962034
8.12,-0.699958301442029,-0.04694767222880371,-0.12699633087121934
8.13,0.39298302958202436,0.008193562244115597,-0.04267459329757936
8.14,1.6639465108155158,0.03779329655089712,-0.10875883985121927
8.15,2.521240674789565,0.056885474489975205,-0.0698302480455132
8.159999999999998,2.350625723274828,-0.005313309243928011,-0.055207071544844936
8.170000000000002,1.6464155109511394,0.035373314888600495,-0.09651590815683636
8.179999999999998,0.23782096674437478,-0.0027349763317190867,-0.015431734436242434
8.19,-0.9831259123735294,-0.05358371004967919,-0.1265423572559341
8.200000000000001,-2.3507991998008864,-0.040381097975221485,-0.15309640845107067
8.209999999999999,-3.6123430385477473,-0.09175290865504983,-0.16745775970957363
8.220000000000002,-3.947601748738154,-0.07203559040999587,-0.11862493798620324
8.230000000000004,-2.6500278063774267,0.0037448504551867174,-0.09358735982852591
8.239999999999997,-1.2725013772568554,-0.09218615513566471,-0.11542208182978672
8.250000000000004,-0.08753526704573675,-0.016721434193326792,-0.10437495944743705
8.259999999999993,1.095156699414236,0.003500664485054894,-0.0843523891820045
8.27,2.292812946096988,0.04812838111047117,-0.1418743792698708
8.279999999999994,2.491959731398103,0.04151077352092138,-0.034235246792659435
8.290000000000003,2.1010628153092332,0.04106100753573741,-0.07538327777060103
8.300000000000002,1.0674313531233606,0.0253008789485178,-0.06545040824512256
8.309999999999999,-0.35151146890559265,-0.03476209324261931,-0.07514667063953659
8.320000000000002,-1.5334961859770269,-0.0568238961322578,-0.1392369353449673
8.330000000000004,-2.99076159004773,-0.0389296054556634,-0.150435481687693
8.34,-3.9526363094709094,-0.1173502734867494,-0.15751903861420594
8.350000000000003,-3.3757366766653174,-0.010217261540036889,-0.09622747620213441
8.359999999999996,-1.9112422256325614,-0.022593153464576094,-0.1138639383742677
8.369999999999996,-0.7647805127737833,-0.077343578439556,-0.0996393923995959
8.380000000000003,0.49037583883017094,0.0007288554841294967,-0.08112328159073252
8.39,1.7080716638829465,0.018391301605600506,-0.12221996064004635
8.400000000000004,2.537607164827144,0.050668933492945115,-0.11083869488591051
8.410000000000002,2.283207892434164,0.0065844601608056035,-0.08326190414606215
8.419999999999996,1.579536707822239,0.06558787742399111,-0.09450832678864637
8.430000000000003,0.29958869551997813,-0.0036622773897374917,-0.02824017714150702
8.44,-1.0278681204512101,-0.0516857471107396,-0.12027706984764878
8.450000000000001,-2.319699553232831,-0.0444966530588969,-0.14402339804795122
8.46,-3.6079726191414876,-0.069747778679338,-0.1875218839190343
8.469999999999999,-4.017594037159208,-0.06447258565324022,-0.12897690642129417
8.48,-2.7224562035822384,-0.0006167313932152976,-0.11583264065482339
8.490000000000004,-1.3249509305040796,-0.0488374605152446,-0.15381512709935116
8.499999999999996,-0.2702201073552434,-0.023745567968526803,-0.09220801737328405
8.510000000000002,1.0160653561165285,0.006550923373983713,-0.06363397751553876
8.520000000000003,2.1986533422155623,0.0620341316494336,-0.16260488475302765
8.530000000000003,2.479756678080509,0.0339893205508993,-0.06436232223543334
8.540000000000001,2.084302884385797,0.01739856443810851,-0.12942307208968026
8.550000000000006,0.9526554483738355,0.06624964415715581,-0.07564421656620329
8.559999999999999,-0.40864274011647966,-0.030900469711478515,-0.06993049336204794
8.570000000000004,-1.63381896176572,-0.052205659426560205,-0.16694586531001024
8.579999999999997,-3.0897529310373195,-0.07010086704766738,-0.13850808833569173
8.59,-4.0400117365663135,-0.0937568746634077,-0.17909614005523786
8.6,-3.577864277314728,-0.009672101366597194,-0.09987578786720985
8.61,-1.9491629554982532,-0.0255044276603735,-0.12187494758243023
8.619999999999997,-0.7106025844565295,-0.0581474981855579,-0.16597131051861533
8.630000000000003,0.4062754749497118,0.023915027866308,-0.08890568864912514
8.639999999999999,1.7980284119838894,0.014783314755379334,-0.1502258683649444
8.650000000000004,2.4730374917170166,0.05499021876241218,-0.14666797729530826
8.66,2.3391619358604405,0.0232007790825334,-0.08249768865114107
8.669999999999998,1.5934199283005714,0.06824779650624091,-0.1596516187749176
8.680000000000001,0.3674747828969834,0.013162198275822318,-0.09244431809830013
8.690000000000003,-1.03664432186583,-0.0440904794348102,-0.1311448712261056
8.699999999999996,-2.3686965278731678,-0.04326733242702162,-0.16291139822984121
8.710000000000004,-3.544090358301296,-0.07740728939933131,-0.1917740730209211
8.719999999999994,-3.959717101627924,-0.07422195519355589,-0.13258873170525834
8.73,-2.7708257722874503,0.026492323225732417,-0.13231090694906109
8.739999999999991,-1.211232143456462,-0.0765064822268326,-0.13237582047553878
8.750000000000005,-0.09533201762462365,-0.016058189197648304,-0.10816316487209361
8.759999999999998,1.138791941389224,0.027476768270992512,-0.11871485736786594
8.769999999999998,2.4406593852127108,0.0578912507962378,-0.1871495980783178
8.780000000000001,2.576287286931777,0.03599394797036122,-0.11199809155875752
8.790000000000001,2.1742855171538618,0.03482709474051889,-0.16710958374583432
8.8,1.1041800027107642,0.07338374245315128,-0.10961866015201488
8.810000000000002,-0.2842932909622757,-0.041934702885281616,-0.12310656422614265
8.819999999999993,-1.7097567313437507,-0.03291576087236491,-0.15819016755143148
8.829999999999998,-2.9882912866652123,-0.06446426446755471,-0.20195572087617802
8.84,-3.950581999833338,-0.09247491285144332,-0.1595938465783544
8.850000000000001,-3.3390033261770706,-0.020736666405975802,-0.12202834032033182
8.86,-1.8512783921676361,-0.017680096642048698,-0.1644209673353534
8.870000000000001,-0.5620308748708874,-0.0489543960191002,-0.13685617255047156
8.879999999999997,0.4476127186383505,0.0020211217919242105,-0.08174542193044661
8.89,1.8941819417490777,0.042910726300298706,-0.1537556067340277
8.9,2.6715958318679465,0.08698019731908631,-0.13922005309453145
8.910000000000002,2.4722572498742923,0.0003952256785705902,-0.10568952034242521
8.92,1.7417236476270792,0.0748652473802081,-0.18287712602878617
8.929999999999998,0.4898594214830657,0.030410055438613717,-0.06189939299072385
8.94,-0.9403467540614762,-0.05443315265569561,-0.14871100083953886
8.950000000000003,-2.3866112481368877,-0.04091611228066369,-0.16617718875331627
8.959999999999999,-3.5913092814539844,-0.05350640056119622,-0.20018819348262987
8.970000000000002,-3.8492707807381943,-0.0739331968642585,-0.14008690470915558
8.980000000000002,-2.641361546817165,0.016864655554218403,-0.13319479434714937
8.990000000000002,-1.1891299447724941,-0.066369782232023,-0.1892663235370427
9.0,0.011621445867093178,-0.005644459961083106,-0.1453793170888359
9.010000000000003,1.1123601676288744,0.015025180742364905,-0.10073418718065288
9.019999999999998,2.4809112389860286,0.05695028526396072,-0.1766399248927466
9.030000000000006,2.6364812032764573,0.05058785714880071,-0.053568097883592784
9.039999999999997,2.282030509346349,0.025464068110175004,-0.1384516620810988
9.050000000000002,1.0872567357408667,0.059291995292425105,-0.12060615878792612
9.06,-0.1713480717150211,-0.0025755425995434805,-0.11755139125130594
9.07,-1.6089900421855767,-0.05020344388351751,-0.1685547434670095
9.079999999999997,-3.017973041708339,-0.02620096786754631,-0.19883485228001832
9.090000000000002,-3.8765928706709984,-0.111733806724063,-0.2010497407533152
9.099999999999996,-3.2735036064165444,0.019180326442458394,-0.13679152957422902
9.110000000000001,-1.841843387004631,-0.017028034236118702,-0.15678719527799523
9.119999999999997,-0.4818180789309541,-0.07651419086491232,-0.1675407457018633
9.13,0.622157117102066,0.02364274846632469,-0.07922089036197419
9.139999999999999,1.940534430718497,0.03837099096573338,-0.15708843524217103
9.150000000000002,2.7753468166002264,0.04850969558793682,-0.15617773374600766
9.159999999999997,2.5422609815515678,0.02048562922478263,-0.09203122374051652
9.170000000000002,1.8325657371061468,0.08321902426785201,-0.15623848228434603
9.179999999999993,0.47653461426094784,0.013809709409948499,-0.12296878734829221
9.19,-0.8394811438576256,-0.041106808168490404,-0.20191331958917647
9.199999999999992,-2.3103514027372274,-0.052875616022553015,-0.16416826641085083
9.210000000000003,-3.559597043719217,-0.0805131511299408,-0.21738392274803697
9.219999999999997,-3.8119807668923253,-0.09181856473797832,-0.16794526992454845
9.229999999999999,-2.4222536372962935,0.015445484580159208,-0.1753964358380806
9.240000000000002,-1.1481074475985815,-0.05291410166472422,-0.1828017266885775
9.250000000000002,0.07211554550194724,-0.0197336569447503,-0.1397898957327095
9.26,1.2100473958880102,0.030123962076147114,-0.09638685417821896
9.270000000000003,2.528365584425252,0.060513642962128515,-0.1715918280261998
9.279999999999992,2.7478746478742226,0.02978797520770128,-0.0691836963418475
9.289999999999997,2.3587782039583725,0.030076200996666396,-0.1692752934339334
9.300000000000002,1.128895860134077,0.07770917866702633,-0.11874969455067186
9.310000000000004,-0.27860009491326326,-0.03316337141737841,-0.11883254308709733
9.320000000000002,-1.5605617522109252,-0.0511033809181296,-0.21251546362050153
9.330000000000002,-2.978014416817008,-0.0678361998193086,-0.1733848626469036
9.339999999999998,-3.9251442078769063,-0.10713158836463553,-0.2314055514344029
9.350000000000003,-3.268739716865895,-0.02704866171878259,-0.11852354773398369
9.36,-1.7788159270730883,-0.006855775871898209,-0.16470619146631754
9.37,-0.5198984413172754,-0.07369623492241081,-0.18217954409174103
9.38,0.6418412990032119,0.026960446031394882,-0.10369222375913173
9.389999999999997,1.9488242988749536,0.029842655234519386,-0.13558424747224238
9.4,2.791232142164194,0.0699902656307108,-0.13857281009946892
9.410000000000005,2.583960152893396,-2.975741705523363e-06,-0.05636269828061374
9.419999999999998,1.8650148845473289,0.05843236246072691,-0.13712003243392626
9.43,0.5312783611408193,0.037482691222666,-0.10343039292729807
9.440000000000001,-0.7217639544897749,-0.07001580046979121,-0.14486548687925768
9.45,-2.274788873443058,-0.04317601755833759,-0.20414926213658402
9.46,-3.5873947347848882,-0.0696002476504055,-0.23389890729123564
9.470000000000006,-3.784512363803901,-0.0768827237831689,-0.19075598676431957
9.479999999999997,-2.52234509264863,0.0314018617259379,-0.1522850816935222
9.490000000000006,-1.2029727179443457,-0.0810479112021873,-0.18956811109020905
9.499999999999996,-0.009390066857451718,-0.003207985609609012,-0.11497827909976478
9.509999999999998,1.2778017860826907,0.047640961834261086,-0.1081728006737729
9.520000000000001,2.452171414073973,0.04774586907537409,-0.15267338639775277
9.529999999999998,2.654133367866048,0.045106306157908116,-0.08758037461490725
9.539999999999997,2.243491336375924,0.0248633261769368,-0.13578931262069682
9.550000000000002,1.1958647284552548,0.05466259394736279,-0.10674209126054011
9.559999999999999,-0.304680680013681,-0.030410040419251088,-0.16519837290648812
9.570000000000002,-1.6191645336623712,-0.0609558567332754,-0.19717450391459088
9.58,-3.037734077730142,-0.04684107487463749,-0.20227401577209922
9.589999999999998,-4.005289734908358,-0.12729470373371846,-0.22226933918374073
9.6,-3.366827812660969,-0.029855508782244803,-0.13777906435710133
9.610000000000001,-1.9089346304646695,0.0034977278593588982,-0.15580738980247813
9.619999999999996,-0.7266311616339904,-0.06641081788312912,-0.17284955348026332
9.630000000000003,0.4868128026540382,0.01492992490962422,-0.1109052015643309
9.639999999999992,1.9209982771488243,0.0347991962566214,-0.15281654853800933
9.65,2.5593878521338307,0.0612120745576967,-0.11750824008627364
9.659999999999991,2.4494165044814986,0.0065012694294700754,-0.10275121618333385
9.670000000000002,1.7553081437478957,0.06272840589299258,-0.14457471623572832
9.679999999999998,0.3629710041377337,0.014703573762179203,-0.05833931043734674
9.689999999999996,-1.102328114135877,-0.056978847153017,-0.17052093011342062
9.7,-2.4604406707515136,-0.047957769824905704,-0.1594797418945927
9.71,-3.6671751166343416,-0.0716710590963349,-0.27240428528755084
9.719999999999999,-3.987616388771196,-0.0874507986433804,-0.18784257988273617
9.730000000000004,-2.6694830177077264,-0.0006481485171718971,-0.1477614799654556
9.739999999999995,-1.1839197321523973,-0.07238123026837369,-0.16529026609982825
9.749999999999996,-0.1311319008068161,0.0015012712763593213,-0.1257201096757438
9.760000000000002,1.1688487223966588,0.017893467995679806,-0.08449304597604122
9.769999999999998,2.421555692476519,0.0398382716042799,-0.1397049818988256
9.78,2.5954227840813906,0.048419426592265606,-0.027881760584538718
9.79,2.2222317585234515,0.015082345709447187,-0.08368723543077801
9.799999999999997,1.086312726772019,0.057925739337353316,-0.06951304450213272
9.810000000000004,-0.23362822141978234,-0.009002974191894508,-0.08533178099146624
9.819999999999997,-1.7776440209729427,-0.06564818763620059,-0.14820323168916075
9.829999999999998,-3.021056649606834,-0.0674318122698498,-0.12041395129994611
9.84,-3.9236966425531463,-0.0988134610537179,-0.1625452307416741
9.849999999999998,-3.4076950796954755,-0.01363804134818319,-0.09619173403087654
9.859999999999998,-1.9143179113542703,-0.022347372203074787,-0.11396884324110215
9.870000000000001,-0.522077278054617,-0.07634351764144899,-0.1030963788578285
9.879999999999997,0.5030823801402775,0.018196399527687413,-0.035455198918092866
9.89,2.0098371488061733,0.022773972562997118,-0.09664967062096783
9.9,2.714285938307931,0.0571088704775763,-0.0790712924736763
9.91,2.5399751336731407,0.024912221637860502,-0.04956888175952987
9.919999999999998,1.7979320707592386,0.0492175689629104,-0.09342940751700962
9.930000000000003,0.5637395307895948,0.023977731680324004,-0.015810525452876867
9.939999999999994,-0.9536451236569967,-0.0569853747113158,-0.10115241542075774
9.950000000000003,-2.3759576511433687,-0.02894752301107119,-0.10056683069956966
9.959999999999997,-3.688413737550295,-0.0819269047422798,-0.16090018273794857
9.969999999999999,-3.8667381028862624,-0.0971609761255587,-0.13143240326480904
9.98,-2.585387891348414,0.03472703524956262,-0.08852615229000847
9.989999999999998,-1.1103719306223696,-0.06502770614230481,-0.14289092293683625
9.999999999999996,0.030201676275052613,-0.02783772691003282,-0.0858403249800286
10.009999999999998,1.2315303407391662,0.002381536311666019,-0.044584161636897816
10.019999999999998,2.5553355841648084,0.0684339607859457,-0.12171882681900004
10.03,2.711900423369793,0.03299908537818339,-0.0489459243657215
10.040000000000001,2.2873983416045554,0.018983764873396706,-0.09764088435789799
10.05,1.2569252208216932,0.0717926149072591,-0.04143908567333268
10.060000000000004,-0.17265168594422103,-0.043200793020991786,-0.06153196439189123
10.070000000000004,-1.6552275405056254,-0.05195892411092989,-0.12604016529085912
10.079999999999997,-2.971840226846385,-0.042407417110979014,-0.13948101680530003
10.089999999999998,-3.957247175741697,-0.09156982866124812,-0.19449146045853477
10.09999999999999,-3.4252222408528503,-0.039550154478322004,-0.07040740384821123
10.109999999999998,-1.918931947487738,-0.007421183586747588,-0.1210815421421636
10.119999999999994,-0.5194024018419913,-0.06546627638422581,-0.10056802982824782
10.130000000000003,0.5555904816982853,0.0147279164591358,-0.0717317736778276
10.139999999999999,2.049022728806698,0.0175420191911613,-0.11544265596216505
10.149999999999995,2.7716435216899735,0.07556334892134052,-0.10194324311477501
10.160000000000002,2.6105243028115375,-0.0020629995512870813,-0.040691925730661604
10.169999999999998,1.866898468794911,0.0545899761035475,-0.10842579915883327
10.18,0.564076625499828,0.026004881428878898,-0.06450634624288307
10.190000000000003,-0.886066470458485,-0.03987841458413151,-0.14906501053959093
10.199999999999992,-2.2988415769177997,-0.05435073765587202,-0.10119123237245059
10.21,-3.5027711566239774,-0.05985986836329339,-0.17078428956235148
10.22,-3.843950145547719,-0.08223727734244142,-0.16357350439917784
10.229999999999999,-2.539841571488355,0.006613884797878693,-0.12190700559351644
10.240000000000004,-1.2572490200749413,-0.0641034327125895,-0.16645706150645728
10.250000000000002,0.02595812283487131,-0.0156135089479894,-0.06887805555778811
10.259999999999998,1.1545250426643114,0.02501547235458332,-0.050691383869300895
10.270000000000003,2.5391200098828604,0.045014206254701226,-0.14447447143309286
10.279999999999996,2.671844661317664,0.06315714868178092,-0.06936193211226134
10.289999999999997,2.318501803542942,0.028699730895407685,-0.14130172677767883
10.300000000000002,1.0699128566950915,0.05273946028505901,-0.06414795960369252
10.31,-0.2840090588098311,-0.013564187015685795,-0.08734657166531033
10.32,-1.6969067425710667,-0.03823091052310039,-0.14120801249892664
10.330000000000005,-3.156063042228509,-0.04024428185866339,-0.1861912690335121
10.339999999999998,-4.077152295813839,-0.1433305163129855,-0.16830807737253292
10.349999999999998,-3.323763088948325,-0.006471374711411902,-0.1158098209040068
10.360000000000003,-1.859728526425061,-0.008972145193782002,-0.1608918903223652
10.370000000000001,-0.5895470022110584,-0.07855528659804739,-0.16008753351358676
10.38,0.624182325257457,0.022869622198929095,-0.09711288876307039
10.390000000000004,1.9247020357256364,0.038102037563000214,-0.1333766177464571
10.399999999999999,2.7904097798283645,0.05960617152216872,-0.10655782849513254
10.410000000000005,2.5304528298152023,0.010316358161757903,-0.09579549969004725
10.419999999999998,1.8012113804014078,0.048289386899669,-0.12649504629236638
10.43,0.29014793153521934,0.021523813607923412,-0.07024098562832351
10.44,-1.1328767670757505,-0.05330587631615769,-0.1333481916238232
10.45,-2.538316754803904,-0.04551521852201382,-0.140021460680899
10.46,-3.5402854425567667,-0.08117395893918151,-0.19243879553505067
10.47,-3.3415077953729715,-0.06391689190072258,-0.14381409293492198
10.479999999999999,-2.0120244190805274,0.008998062143400893,-0.14849425903108593
10.49,-0.7489205529732849,-0.05286169704421901,-0.16411469241401397
10.500000000000004,0.2925367153450285,0.013789317256994487,-0.06890356427858797
10.509999999999998,1.306311324007265,0.0102149853494598,-0.12352434331249379
10.520000000000001,1.6529311477800654,0.046796155350398785,-0.15260766038301873
10.530000000000003,1.389934343204415,0.00786429389504371,-0.11939379227797772
10.539999999999996,0.9099517949694238,0.03281857446919033,-0.1446865837671244
10.55,0.3352196878982573,0.043141897380191106,-0.07434179420360754
10.559999999999992,-0.5852184736099753,-0.022892814717602208,-0.18033581664999562
10.57,-1.3994988278758949,-0.061976615846949516,-0.17133696020742686
10.579999999999997,-2.0690001634363866,-0.01808782907904011,-0.14485675845289772
10.590000000000002,-1.987785309880806,-0.031625638274238595,-0.13987716514618204
10.599999999999998,-1.2375880541671958,-0.005364853108878509,-0.11496234129048154
10.609999999999996,-0.3405667066131582,0.01797680080112749,-0.13776500798292793
10.619999999999997,0.1319274159514897,-0.011357108998966215,-0.15403426844317422
10.63,0.5368912955601254,-0.0005066699749751021,-0.137073131564817
10.640000000000002,0.5943115734153721,0.01668406457511462,-0.14567337936754887
10.650000000000004,0.26255557690167214,-0.010606587773421704,-0.13291019319603484
10.659999999999995,-0.10840543024653809,0.016451479312424997,-0.15916205360630808
10.669999999999998,-0.26954536419211683,0.004508507308661804,-0.1370586011565292
10.68,-0.34006239667756966,-0.0056218258550216876,-0.15616466956601122
10.69,-0.27512940784936885,-0.024443010150911694,-0.14933330255799693
10.700000000000001,-0.1424052989225113,-0.01234862987109429,-0.15432601279888308
10.71,-0.10820212639834739,0.007722906248075908,-0.12204444747300812
10.719999999999999,-0.18060978187586207,-0.011724843553401709,-0.15723388850096318
10.730000000000002,-0.22941369111946258,-0.0083093567361852,-0.14180907573338422
10.739999999999997,-0.21696058072039776,0.012206833315917787,-0.17504829031377742
10.750000000000002,-0.13620996336037436,0.011174393885009695,-0.1648123820786727
