Time (s),Raw Acceleration,Acceleration x (m/s^2)
7.5,2543,-0.029138614
7.51,2550,-0.097128713
7.52,2547,-0.067990099
7.53,2554,-0.135980198
7.54,2540,0
7.55,2551,-0.106841584
7.56,2546,-0.058277228
7.57,2548,-0.07770297
7.58,2544,-0.038851485
7.59,2547,-0.067990099
7.6,2549,-0.087415842
7.61,2548,-0.07770297
7.62,2546,-0.058277228
7.63,2548,-0.07770297
7.64,2542,-0.019425743
7.65,2551,-0.106841584
7.66,2549,-0.087415842
7.67,2543,-0.029138614
7.68,2545,-0.048564356
7.69,2547,-0.067990099
7.7,2548,-0.07770297
7.71,2547,-0.067990099
7.72,2551,-0.106841584
7.73,2547,-0.067990099
7.74,2546,-0.058277228
7.75,2540,0
7.76,2547,-0.067990099
7.77,2536,0.038851485
7.78,2547,-0.067990099
7.79,2544,-0.038851485
7.8,2548,-0.07770297
7.81,2539,0.009712871
7.82,2548,-0.07770297
7.83,2549,-0.087415842
7.84,2549,-0.087415842
7.85,2543,-0.029138614
7.86,2548,-0.07770297
7.87,2544,-0.038851485
7.88,2544,-0.038851485
7.89,2547,-0.067990099
7.9,2536,0.038851485
7.91,2523,0.165118812
7.92,2513,0.262247525
7.93,2520,0.194257426
7.94,2534,0.058277228
7.95,2551,-0.106841584
7.96,2551,-0.106841584
7.97,2554,-0.135980198
7.98,2541,-0.009712871
7.99,2553,-0.126267327
8,2555,-0.145693069
8.01,2575,-0.339950495
8.02,2562,-0.213683168
8.03,2576,-0.349663366
8.04,2567,-0.262247525
8.05,2572,-0.310811881
8.06,2568,-0.271960396
8.07,2587,-0.45650495
8.08,2578,-0.369089109
8.09,2581,-0.398227723
8.1,2568,-0.271960396
8.11,2561,-0.203970297
8.12,2551,-0.106841584
8.13,2561,-0.203970297
8.14,2561,-0.203970297
8.15,2561,-0.203970297
8.16,2550,-0.097128713
8.17,2544,-0.038851485
8.18,2540,0
8.19,2539,0.009712871
8.2,2538,0.019425743
8.21,2531,0.087415842
8.22,2522,0.174831683
8.23,2510,0.291386139
8.24,2504,0.349663366
8.25,2504,0.349663366
8.26,2509,0.30109901
8.27,2492,0.466217822
8.28,2501,0.37880198
8.29,2487,0.514782178
8.3,2494,0.446792079
8.31,2483,0.553633663
8.32,2493,0.45650495
8.33,2508,0.310811881
8.34,2531,0.087415842
8.35,2529,0.106841584
8.36,2529,0.106841584
8.37,2517,0.22339604
8.38,2525,0.145693069
8.39,2531,0.087415842
8.4,2551,-0.106841584
8.41,2551,-0.106841584
8.42,2555,-0.145693069
8.43,2563,-0.22339604
8.44,2575,-0.339950495
8.45,2587,-0.45650495
8.46,2591,-0.495356436
8.47,2603,-0.611910891
8.48,2603,-0.611910891
8.49,2610,-0.67990099
8.5,2632,-0.893584158
8.51,2643,-1.000425743
8.52,2601,-0.592485149
8.53,2611,-0.689613861
8.54,2592,-0.505069307
8.55,2601,-0.592485149
8.56,2595,-0.534207921
8.57,2612,-0.699326733
8.58,2590,-0.485643564
8.59,2599,-0.573059406
8.6,2577,-0.359376238
8.61,2582,-0.407940594
8.62,2569,-0.281673267
8.63,2571,-0.30109901
8.64,2555,-0.145693069
8.65,2552,-0.116554455
8.66,2537,0.029138614
8.67,2530,0.097128713
8.68,2515,0.242821782
8.69,2490,0.485643564
8.7,2484,0.543920792
8.71,2493,0.45650495
8.72,2477,0.611910891
8.73,2462,0.75760396
8.74,2463,0.747891089
8.75,2454,0.835306931
8.76,2449,0.883871287
8.77,2436,1.010138614
8.78,2432,1.048990099
8.79,2426,1.107267327
8.8,2459,0.786742574
8.81,2475,0.631336634
8.82,2492,0.466217822
8.83,2493,0.45650495
8.84,2493,0.45650495
8.85,2493,0.45650495
8.86,2497,0.417653465
8.87,2510,0.291386139
8.88,2536,0.038851485
8.89,2547,-0.067990099
8.9,2568,-0.271960396
8.91,2571,-0.30109901
8.92,2595,-0.534207921
8.93,2606,-0.641049505
8.94,2614,-0.718752475
8.95,2620,-0.777029703
8.96,2631,-0.883871287
8.97,2645,-1.019851485
8.98,2650,-1.068415842
8.99,2664,-1.20439604
9,2683,-1.388940594
9.01,2678,-1.340376238
9.02,2629,-0.864445545
9.03,2614,-0.718752475
9.04,2604,-0.621623762
9.05,2632,-0.893584158
9.06,2611,-0.689613861
9.07,2623,-0.806168317
9.08,2598,-0.563346535
9.09,2605,-0.631336634
9.1,2581,-0.398227723
9.11,2585,-0.437079208
9.12,2556,-0.155405941
9.13,2557,-0.165118812
9.14,2532,0.07770297
9.15,2535,0.048564356
9.16,2515,0.242821782
9.17,2504,0.349663366
9.18,2479,0.592485149
9.19,2471,0.670188119
9.2,2473,0.650762376
9.21,2458,0.796455446
9.22,2444,0.932435644
9.23,2447,0.90329703
9.24,2440,0.971287129
9.25,2435,1.019851485
9.26,2430,1.068415842
9.27,2424,1.126693069
9.28,2415,1.214108911
9.29,2439,0.981
9.3,2473,0.650762376
9.31,2487,0.514782178
9.32,2491,0.475930693
9.33,2489,0.495356436
9.34,2499,0.398227723
9.35,2501,0.37880198
9.36,2509,0.30109901
9.37,2525,0.145693069
9.38,2547,-0.067990099
9.39,2553,-0.126267327
9.4,2566,-0.252534653
9.41,2569,-0.281673267
9.42,2597,-0.553633663
9.43,2602,-0.60219802
9.44,2620,-0.777029703
9.45,2620,-0.777029703
9.46,2638,-0.951861386
9.47,2635,-0.922722772
9.48,2655,-1.116980198
9.49,2656,-1.126693069
9.5,2680,-1.35980198
9.51,2681,-1.369514851
9.52,2632,-0.893584158
9.53,2613,-0.709039604
9.54,2611,-0.689613861
9.55,2625,-0.825594059
9.56,2619,-0.767316832
9.57,2618,-0.75760396
9.58,2598,-0.563346535
9.59,2604,-0.621623762
9.6,2585,-0.437079208
9.61,2586,-0.446792079
9.62,2560,-0.194257426
9.63,2556,-0.155405941
9.64,2533,0.067990099
9.65,2537,0.029138614
9.66,2515,0.242821782
9.67,2505,0.339950495
9.68,2472,0.660475248
9.69,2476,0.621623762
9.7,2474,0.641049505
9.71,2461,0.767316832
9.72,2454,0.835306931
9.73,2451,0.864445545
9.74,2439,0.981
9.75,2427,1.097554455
9.76,2431,1.05870297
9.77,2425,1.116980198
9.78,2419,1.175257426
9.79,2443,0.942148515
9.8,2480,0.582772277
9.81,2490,0.485643564
9.82,2483,0.553633663
9.83,2489,0.495356436
9.84,2498,0.407940594
9.85,2505,0.339950495
9.86,2517,0.22339604
9.87,2526,0.135980198
9.88,2539,0.009712871
9.89,2552,-0.116554455
9.9,2571,-0.30109901
9.91,2570,-0.291386139
9.92,2599,-0.573059406
9.93,2602,-0.60219802
9.94,2617,-0.747891089
9.95,2618,-0.75760396
9.96,2634,-0.913009901
9.97,2637,-0.942148515
9.98,2654,-1.107267327
9.99,2656,-1.126693069
10,2678,-1.340376238
10.01,2676,-1.320950495
10.02,2641,-0.981
10.03,2608,-0.660475248
10.04,2612,-0.699326733
10.05,2625,-0.825594059
10.06,2618,-0.75760396
10.07,2617,-0.747891089
10.08,2607,-0.650762376
10.09,2600,-0.582772277
10.1,2591,-0.495356436
10.11,2586,-0.446792079
10.12,2565,-0.242821782
10.13,2559,-0.184544554
10.14,2538,0.019425743
10.15,2539,0.009712871
10.16,2517,0.22339604
10.17,2508,0.310811881
10.18,2477,0.611910891
10.19,2472,0.660475248
10.2,2476,0.621623762
10.21,2465,0.728465347
10.22,2449,0.883871287
10.23,2457,0.806168317
10.24,2444,0.932435644
10.25,2433,1.039277228
10.26,2435,1.019851485
10.27,2424,1.126693069
10.28,2407,1.291811881
10.29,2437,1.000425743
10.3,2478,0.60219802
10.31,2496,0.427366337
10.32,2490,0.485643564
10.33,2491,0.475930693
10.34,2498,0.407940594
10.35,2503,0.359376238
10.36,2513,0.262247525
10.37,2519,0.203970297
10.38,2545,-0.048564356
10.39,2549,-0.087415842
10.4,2566,-0.252534653
10.41,2569,-0.281673267
10.42,2600,-0.582772277
10.43,2603,-0.611910891
10.44,2618,-0.75760396
10.45,2615,-0.728465347
10.46,2642,-0.990712871
10.47,2635,-0.922722772
10.48,2659,-1.155831683
10.49,2646,-1.029564356
10.5,2674,-1.301524752
10.51,2675,-1.311237624
10.52,2646,-1.029564356
10.53,2611,-0.689613861
10.54,2618,-0.75760396
10.55,2622,-0.796455446
10.56,2617,-0.747891089
10.57,2620,-0.777029703
10.58,2601,-0.592485149
10.59,2600,-0.582772277
10.6,2587,-0.45650495
10.61,2583,-0.417653465
10.62,2562,-0.213683168
10.63,2560,-0.194257426
10.64,2536,0.038851485
10.65,2537,0.029138614
10.66,2519,0.203970297
10.67,2504,0.349663366
10.68,2475,0.631336634
10.69,2468,0.699326733
10.7,2477,0.611910891
10.71,2466,0.718752475
10.72,2449,0.883871287
10.73,2457,0.806168317
10.74,2439,0.981
10.75,2444,0.932435644
10.76,2430,1.068415842
10.77,2427,1.097554455
10.78,2409,1.272386139
10.79,2429,1.078128713
10.8,2475,0.631336634
10.81,2494,0.446792079
10.82,2487,0.514782178
10.83,2499,0.398227723
10.84,2500,0.388514851
10.85,2498,0.407940594
10.86,2502,0.369089109
10.87,2524,0.155405941
10.88,2547,-0.067990099
10.89,2546,-0.058277228
10.9,2574,-0.330237624
10.91,2569,-0.281673267
10.92,2601,-0.592485149
10.93,2605,-0.631336634
10.94,2615,-0.728465347
10.95,2618,-0.75760396
10.96,2634,-0.913009901
10.97,2639,-0.961574257
10.98,2660,-1.165544554
10.99,2653,-1.097554455
11,2680,-1.35980198
11.01,2669,-1.252960396
11.02,2644,-1.010138614
11.03,2613,-0.709039604
11.04,2618,-0.75760396
11.05,2619,-0.767316832
11.06,2619,-0.767316832
11.07,2620,-0.777029703
11.08,2603,-0.611910891
11.09,2597,-0.553633663
11.1,2588,-0.466217822
11.11,2577,-0.359376238
11.12,2564,-0.233108911
11.13,2559,-0.184544554
11.14,2537,0.029138614
11.15,2536,0.038851485
11.16,2512,0.271960396
11.17,2502,0.369089109
11.18,2472,0.660475248
11.19,2480,0.582772277
11.2,2477,0.611910891
11.21,2461,0.767316832
11.22,2447,0.90329703
11.23,2451,0.864445545
11.24,2440,0.971287129
11.25,2431,1.05870297
11.26,2431,1.05870297
11.27,2429,1.078128713
11.28,2411,1.252960396
11.29,2432,1.048990099
11.3,2474,0.641049505
11.31,2498,0.407940594
11.32,2491,0.475930693
11.33,2496,0.427366337
11.34,2494,0.446792079
11.35,2502,0.369089109
11.36,2510,0.291386139
11.37,2529,0.106841584
11.38,2548,-0.07770297
11.39,2548,-0.07770297
11.4,2568,-0.271960396
11.41,2565,-0.242821782
11.42,2600,-0.582772277
11.43,2601,-0.592485149
11.44,2620,-0.777029703
11.45,2620,-0.777029703
11.46,2635,-0.922722772
11.47,2644,-1.010138614
11.48,2661,-1.175257426
11.49,2647,-1.039277228
11.5,2685,-1.408366337
11.51,2663,-1.194683168
11.52,2639,-0.961574257
11.53,2611,-0.689613861
11.54,2618,-0.75760396
11.55,2618,-0.75760396
11.56,2622,-0.796455446
11.57,2618,-0.75760396
11.58,2602,-0.60219802
11.59,2599,-0.573059406
11.6,2584,-0.427366337
11.61,2583,-0.417653465
11.62,2565,-0.242821782
11.63,2554,-0.135980198
11.64,2542,-0.019425743
11.65,2529,0.106841584
11.66,2512,0.271960396
11.67,2502,0.369089109
11.68,2470,0.67990099
11.69,2480,0.582772277
11.7,2474,0.641049505
11.71,2460,0.777029703
11.72,2449,0.883871287
11.73,2456,0.815881188
11.74,2440,0.971287129
11.75,2431,1.05870297
11.76,2428,1.087841584
11.77,2428,1.087841584
11.78,2414,1.223821782
11.79,2434,1.029564356
11.8,2474,0.641049505
11.81,2497,0.417653465
11.82,2493,0.45650495
11.83,2500,0.388514851
11.84,2497,0.417653465
11.85,2502,0.369089109
11.86,2508,0.310811881
11.87,2519,0.203970297
11.88,2542,-0.019425743
11.89,2558,-0.174831683
11.9,2574,-0.330237624
11.91,2570,-0.291386139
11.92,2600,-0.582772277
11.93,2603,-0.611910891
11.94,2617,-0.747891089
11.95,2618,-0.75760396
11.96,2642,-0.990712871
11.97,2633,-0.90329703
11.98,2662,-1.184970297
11.99,2660,-1.165544554
12,2688,-1.43750495
12.01,2664,-1.20439604
12.02,2643,-1.000425743
12.03,2614,-0.718752475
12.04,2613,-0.709039604
12.05,2619,-0.767316832
12.06,2625,-0.825594059
12.07,2624,-0.815881188
12.08,2615,-0.728465347
12.09,2608,-0.660475248
12.1,2586,-0.446792079
12.11,2577,-0.359376238
12.12,2560,-0.194257426
12.13,2554,-0.135980198
12.14,2531,0.087415842
12.15,2541,-0.009712871
12.16,2509,0.30109901
12.17,2508,0.310811881
12.18,2470,0.67990099
12.19,2480,0.582772277
12.2,2471,0.670188119
12.21,2464,0.738178218
12.22,2443,0.942148515
12.23,2446,0.913009901
12.24,2433,1.039277228
12.25,2434,1.029564356
12.26,2431,1.05870297
12.27,2426,1.107267327
12.28,2411,1.252960396
12.29,2435,1.019851485
12.3,2477,0.611910891
12.31,2494,0.446792079
12.32,2492,0.466217822
12.33,2493,0.45650495
12.34,2495,0.437079208
12.35,2500,0.388514851
12.36,2503,0.359376238
12.37,2525,0.145693069
12.38,2549,-0.087415842
12.39,2558,-0.174831683
12.4,2566,-0.252534653
12.41,2571,-0.30109901
12.42,2600,-0.582772277
12.43,2598,-0.563346535
12.44,2621,-0.786742574
12.45,2621,-0.786742574
12.46,2641,-0.981
12.47,2639,-0.961574257
12.48,2658,-1.146118812
12.49,2660,-1.165544554
12.5,2692,-1.476356436
12.51,2666,-1.223821782
12.52,2638,-0.951861386
12.53,2605,-0.631336634
12.54,2606,-0.641049505
12.55,2623,-0.806168317
12.56,2620,-0.777029703
12.57,2624,-0.815881188
12.58,2597,-0.553633663
12.59,2597,-0.553633663
12.6,2581,-0.398227723
12.61,2580,-0.388514851
12.62,2564,-0.233108911
12.63,2555,-0.145693069
12.64,2537,0.029138614
12.65,2535,0.048564356
12.66,2510,0.291386139
12.67,2501,0.37880198
12.68,2466,0.718752475
12.69,2484,0.543920792
12.7,2471,0.670188119
12.71,2464,0.738178218
12.72,2451,0.864445545
12.73,2441,0.961574257
12.74,2434,1.029564356
12.75,2438,0.990712871
12.76,2427,1.097554455
12.77,2428,1.087841584
12.78,2411,1.252960396
12.79,2444,0.932435644
12.8,2475,0.631336634
12.81,2502,0.369089109
12.82,2491,0.475930693
12.83,2498,0.407940594
12.84,2503,0.359376238
12.85,2500,0.388514851
12.86,2511,0.281673267
12.87,2524,0.155405941
12.88,2539,0.009712871
12.89,2557,-0.165118812
12.9,2568,-0.271960396
12.91,2573,-0.320524752
12.92,2598,-0.563346535
12.93,2607,-0.650762376
12.94,2617,-0.747891089
12.95,2621,-0.786742574
12.96,2639,-0.961574257
12.97,2640,-0.971287129
12.98,2659,-1.155831683
12.99,2663,-1.194683168
13,2686,-1.418079208
13.01,2662,-1.184970297
13.02,2635,-0.922722772
13.03,2606,-0.641049505
13.04,2611,-0.689613861
13.05,2623,-0.806168317
13.06,2620,-0.777029703
13.07,2618,-0.75760396
13.08,2601,-0.592485149
13.09,2600,-0.582772277
13.1,2577,-0.359376238
13.11,2582,-0.407940594
13.12,2555,-0.145693069
13.13,2550,-0.097128713
13.14,2531,0.087415842
13.15,2541,-0.009712871
13.16,2507,0.320524752
13.17,2503,0.359376238
13.18,2466,0.718752475
13.19,2479,0.592485149
13.2,2470,0.67990099
13.21,2465,0.728465347
13.22,2450,0.874158416
13.23,2451,0.864445545
13.24,2432,1.048990099
13.25,2425,1.116980198
13.26,2423,1.136405941
13.27,2423,1.136405941
13.28,2408,1.28209901
13.29,2445,0.922722772
13.3,2481,0.573059406
13.31,2497,0.417653465
13.32,2493,0.45650495
13.33,2494,0.446792079
13.34,2503,0.359376238
13.35,2502,0.369089109
13.36,2511,0.281673267
13.37,2519,0.203970297
13.38,2550,-0.097128713
13.39,2559,-0.184544554
13.4,2573,-0.320524752
13.41,2571,-0.30109901
13.42,2601,-0.592485149
13.43,2603,-0.611910891
13.44,2612,-0.699326733
13.45,2626,-0.835306931
13.46,2644,-1.010138614
13.47,2648,-1.048990099
13.48,2659,-1.155831683
13.49,2665,-1.214108911
13.5,2696,-1.515207921
13.51,2667,-1.233534653
13.52,2625,-0.825594059
13.53,2610,-0.67990099
13.54,2609,-0.670188119
13.55,2621,-0.786742574
13.56,2618,-0.75760396
13.57,2622,-0.796455446
13.58,2595,-0.534207921
13.59,2597,-0.553633663
13.6,2583,-0.417653465
13.61,2585,-0.437079208
13.62,2553,-0.126267327
13.63,2559,-0.184544554
13.64,2531,0.087415842
13.65,2537,0.029138614
13.66,2505,0.339950495
13.67,2502,0.369089109
13.68,2463,0.747891089
13.69,2478,0.60219802
13.7,2467,0.709039604
13.71,2458,0.796455446
13.72,2449,0.883871287
13.73,2448,0.893584158
13.74,2433,1.039277228
13.75,2427,1.097554455
13.76,2433,1.039277228
13.77,2428,1.087841584
13.78,2412,1.243247525
13.79,2447,0.90329703
13.8,2478,0.60219802
13.81,2498,0.407940594
13.82,2493,0.45650495
13.83,2499,0.398227723
13.84,2495,0.437079208
13.85,2499,0.398227723
13.86,2517,0.22339604
13.87,2527,0.126267327
13.88,2542,-0.019425743
13.89,2559,-0.184544554
13.9,2572,-0.310811881
13.91,2575,-0.339950495
13.92,2605,-0.631336634
13.93,2609,-0.670188119
13.94,2616,-0.738178218
13.95,2620,-0.777029703
13.96,2641,-0.981
13.97,2647,-1.039277228
13.98,2662,-1.184970297
13.99,2658,-1.146118812
14,2689,-1.447217822
14.01,2663,-1.194683168
14.02,2625,-0.825594059
14.03,2607,-0.650762376
14.04,2609,-0.670188119
14.05,2616,-0.738178218
14.06,2619,-0.767316832
14.07,2622,-0.796455446
14.08,2599,-0.573059406
14.09,2607,-0.650762376
14.1,2587,-0.45650495
14.11,2584,-0.427366337
14.12,2556,-0.155405941
14.13,2549,-0.087415842
14.14,2530,0.097128713
14.15,2536,0.038851485
14.16,2510,0.291386139
14.17,2499,0.398227723
14.18,2471,0.670188119
14.19,2480,0.582772277
14.2,2466,0.718752475
14.21,2467,0.709039604
14.22,2447,0.90329703
14.23,2448,0.893584158
14.24,2432,1.048990099
14.25,2437,1.000425743
14.26,2427,1.097554455
14.27,2430,1.068415842
14.28,2412,1.243247525
14.29,2450,0.874158416
14.3,2475,0.631336634
14.31,2503,0.359376238
14.32,2490,0.485643564
14.33,2502,0.369089109
14.34,2497,0.417653465
14.35,2501,0.37880198
14.36,2509,0.30109901
14.37,2529,0.106841584
14.38,2548,-0.07770297
14.39,2564,-0.233108911
14.4,2575,-0.339950495
14.41,2574,-0.330237624
14.42,2593,-0.514782178
14.43,2605,-0.631336634
14.44,2616,-0.738178218
14.45,2620,-0.777029703
14.46,2637,-0.942148515
14.47,2649,-1.05870297
14.48,2663,-1.194683168
14.49,2655,-1.116980198
14.5,2692,-1.476356436
14.51,2658,-1.146118812
14.52,2639,-0.961574257
14.53,2606,-0.641049505
14.54,2608,-0.660475248
14.55,2613,-0.709039604
14.56,2629,-0.864445545
14.57,2620,-0.777029703
14.58,2602,-0.60219802
14.59,2596,-0.543920792
14.6,2585,-0.437079208
14.61,2581,-0.398227723
14.62,2563,-0.22339604
14.63,2558,-0.174831683
14.64,2536,0.038851485
14.65,2527,0.126267327
14.66,2512,0.271960396
14.67,2493,0.45650495
14.68,2472,0.660475248
14.69,2475,0.631336634
14.7,2469,0.689613861
14.71,2463,0.747891089
14.72,2463,0.747891089
14.73,2435,1.019851485
14.74,2429,1.078128713
14.75,2443,0.942148515
14.76,2434,1.029564356
14.77,2425,1.116980198
14.78,2411,1.252960396
14.79,2449,0.883871287
14.8,2475,0.631336634
14.81,2500,0.388514851
14.82,2490,0.485643564
14.83,2503,0.359376238
14.84,2494,0.446792079
14.85,2500,0.388514851
14.86,2499,0.398227723
14.87,2533,0.067990099
14.88,2544,-0.038851485
14.89,2563,-0.22339604
14.9,2564,-0.233108911
14.91,2578,-0.369089109
14.92,2594,-0.52449505
14.93,2610,-0.67990099
14.94,2618,-0.75760396
14.95,2623,-0.806168317
14.96,2636,-0.932435644
14.97,2644,-1.010138614
14.98,2659,-1.155831683
14.99,2658,-1.146118812
15,2688,-1.43750495
15.01,2662,-1.184970297
15.02,2643,-1.000425743
15.03,2604,-0.621623762
15.04,2614,-0.718752475
15.05,2616,-0.738178218
15.06,2624,-0.815881188
15.07,2618,-0.75760396
15.08,2614,-0.718752475
15.09,2593,-0.514782178
15.1,2591,-0.495356436
15.11,2573,-0.320524752
15.12,2574,-0.330237624
15.13,2545,-0.048564356
15.14,2548,-0.07770297
15.15,2524,0.155405941
15.16,2522,0.174831683
15.17,2498,0.407940594
15.18,2477,0.611910891
15.19,2477,0.611910891
15.2,2479,0.592485149
15.21,2460,0.777029703
15.22,2457,0.806168317
15.23,2445,0.922722772
15.24,2442,0.951861386
15.25,2431,1.05870297
15.26,2427,1.097554455
15.27,2426,1.107267327
15.28,2412,1.243247525
15.29,2443,0.942148515
15.3,2482,0.563346535
15.31,2499,0.398227723
15.32,2491,0.475930693
15.33,2493,0.45650495
15.34,2492,0.466217822
15.35,2507,0.320524752
15.36,2502,0.369089109
15.37,2529,0.106841584
15.38,2542,-0.019425743
15.39,2561,-0.203970297
15.4,2564,-0.233108911
15.41,2582,-0.407940594
15.42,2591,-0.495356436
15.43,2607,-0.650762376
15.44,2610,-0.67990099
15.45,2625,-0.825594059
15.46,2630,-0.874158416
15.47,2647,-1.039277228
15.48,2653,-1.097554455
15.49,2662,-1.184970297
15.5,2683,-1.388940594
15.51,2666,-1.223821782
15.52,2636,-0.932435644
15.53,2610,-0.67990099
15.54,2609,-0.670188119
15.55,2614,-0.718752475
15.56,2622,-0.796455446
15.57,2620,-0.777029703
15.58,2615,-0.728465347
15.59,2598,-0.563346535
15.6,2585,-0.437079208
15.61,2576,-0.349663366
15.62,2573,-0.320524752
15.63,2552,-0.116554455
15.64,2544,-0.038851485
15.65,2523,0.165118812
15.66,2519,0.203970297
15.67,2495,0.437079208
15.68,2478,0.60219802
15.69,2479,0.592485149
15.7,2479,0.592485149
15.71,2456,0.815881188
15.72,2461,0.767316832
15.73,2441,0.961574257
15.74,2445,0.922722772
15.75,2432,1.048990099
15.76,2435,1.019851485
15.77,2419,1.175257426
15.78,2422,1.146118812
15.79,2441,0.961574257
15.8,2482,0.563346535
15.81,2494,0.446792079
15.82,2499,0.398227723
15.83,2496,0.427366337
15.84,2499,0.398227723
15.85,2491,0.475930693
15.86,2511,0.281673267
15.87,2529,0.106841584
15.88,2545,-0.048564356
15.89,2555,-0.145693069
15.9,2567,-0.262247525
15.91,2577,-0.359376238
15.92,2592,-0.505069307
15.93,2605,-0.631336634
15.94,2608,-0.660475248
15.95,2624,-0.815881188
15.96,2629,-0.864445545
15.97,2642,-0.990712871
15.98,2649,-1.05870297
15.99,2660,-1.165544554
16,2676,-1.320950495
16.01,2672,-1.28209901
16.02,2642,-0.990712871
16.03,2608,-0.660475248
16.04,2609,-0.670188119
16.05,2618,-0.75760396
16.06,2622,-0.796455446
16.07,2631,-0.883871287
16.08,2606,-0.641049505
16.09,2595,-0.534207921
16.1,2581,-0.398227723
16.11,2583,-0.417653465
16.12,2568,-0.271960396
16.13,2558,-0.174831683
16.14,2546,-0.058277228
16.15,2529,0.106841584
16.16,2519,0.203970297
16.17,2499,0.398227723
16.18,2482,0.563346535
16.19,2475,0.631336634
16.2,2477,0.611910891
16.21,2461,0.767316832
16.22,2456,0.815881188
16.23,2442,0.951861386
16.24,2447,0.90329703
16.25,2434,1.029564356
16.26,2435,1.019851485
16.27,2423,1.136405941
16.28,2421,1.155831683
16.29,2433,1.039277228
16.3,2476,0.621623762
16.31,2490,0.485643564
16.32,2495,0.437079208
16.33,2493,0.45650495
16.34,2497,0.417653465
16.35,2496,0.427366337
16.36,2513,0.262247525
16.37,2522,0.174831683
16.38,2543,-0.029138614
16.39,2552,-0.116554455
16.4,2574,-0.330237624
16.41,2574,-0.330237624
16.42,2594,-0.52449505
16.43,2601,-0.592485149
16.44,2611,-0.689613861
16.45,2614,-0.718752475
16.46,2637,-0.942148515
16.47,2638,-0.951861386
16.48,2647,-1.039277228
16.49,2659,-1.155831683
16.5,2677,-1.330663366
16.51,2669,-1.252960396
16.52,2641,-0.981
16.53,2616,-0.738178218
16.54,2610,-0.67990099
16.55,2620,-0.777029703
16.56,2619,-0.767316832
16.57,2625,-0.825594059
16.58,2603,-0.611910891
16.59,2602,-0.60219802
16.6,2583,-0.417653465
16.61,2584,-0.427366337
16.62,2564,-0.233108911
16.63,2560,-0.194257426
16.64,2540,0
16.65,2532,0.07770297
16.66,2512,0.271960396
16.67,2498,0.407940594
16.68,2479,0.592485149
16.69,2473,0.650762376
16.7,2468,0.699326733
16.71,2460,0.777029703
16.72,2453,0.845019802
16.73,2447,0.90329703
16.74,2442,0.951861386
16.75,2441,0.961574257
16.76,2430,1.068415842
16.77,2431,1.05870297
16.78,2419,1.175257426
16.79,2436,1.010138614
16.8,2473,0.650762376
16.81,2488,0.505069307
16.82,2495,0.437079208
16.83,2485,0.534207921
16.84,2492,0.466217822
16.85,2499,0.398227723
16.86,2513,0.262247525
16.87,2514,0.252534653
16.88,2542,-0.019425743
16.89,2549,-0.087415842
16.9,2570,-0.291386139
16.91,2564,-0.233108911
16.92,2596,-0.543920792
16.93,2596,-0.543920792
16.94,2622,-0.796455446
16.95,2612,-0.699326733
16.96,2638,-0.951861386
16.97,2637,-0.942148515
16.98,2657,-1.136405941
16.99,2651,-1.078128713
17,2687,-1.427792079
17.01,2667,-1.233534653
17.02,2650,-1.068415842
17.03,2607,-0.650762376
17.04,2612,-0.699326733
17.05,2614,-0.718752475
17.06,2628,-0.854732673
17.07,2629,-0.864445545
17.08,2609,-0.670188119
17.09,2596,-0.543920792
17.1,2585,-0.437079208
17.11,2582,-0.407940594
17.12,2570,-0.291386139
17.13,2560,-0.194257426
17.14,2541,-0.009712871
17.15,2529,0.106841584
17.16,2510,0.291386139
17.17,2510,0.291386139
17.18,2479,0.592485149
17.19,2478,0.60219802
17.2,2471,0.670188119
17.21,2463,0.747891089
17.22,2449,0.883871287
17.23,2446,0.913009901
17.24,2440,0.971287129
17.25,2437,1.000425743
17.26,2434,1.029564356
17.27,2432,1.048990099
17.28,2416,1.20439604
17.29,2436,1.010138614
17.3,2472,0.660475248
17.31,2498,0.407940594
17.32,2492,0.466217822
17.33,2492,0.466217822
17.34,2491,0.475930693
17.35,2500,0.388514851
17.36,2513,0.262247525
17.37,2519,0.203970297
17.38,2540,0
17.39,2550,-0.097128713
17.4,2569,-0.281673267
17.41,2568,-0.271960396
17.42,2589,-0.475930693
17.43,2598,-0.563346535
17.44,2619,-0.767316832
17.45,2615,-0.728465347
17.46,2636,-0.932435644
17.47,2638,-0.951861386
17.48,2656,-1.126693069
17.49,2651,-1.078128713
17.5,2690,-1.456930693
17.51,2664,-1.20439604
17.52,2650,-1.068415842
17.53,2604,-0.621623762
17.54,2618,-0.75760396
17.55,2608,-0.660475248
17.56,2626,-0.835306931
17.57,2624,-0.815881188
17.58,2611,-0.689613861
17.59,2590,-0.485643564
17.6,2585,-0.437079208
17.61,2579,-0.37880198
17.62,2571,-0.30109901
17.63,2553,-0.126267327
17.64,2538,0.019425743
17.65,2532,0.07770297
17.66,2517,0.22339604
17.67,2508,0.310811881
17.68,2479,0.592485149
17.69,2476,0.621623762
17.7,2474,0.641049505
17.71,2460,0.777029703
17.72,2455,0.825594059
17.73,2445,0.922722772
17.74,2438,0.990712871
17.75,2432,1.048990099
17.76,2432,1.048990099
17.77,2424,1.126693069
17.78,2413,1.233534653
17.79,2447,0.90329703
17.8,2474,0.641049505
17.81,2501,0.37880198
17.82,2493,0.45650495
17.83,2495,0.437079208
17.84,2494,0.446792079
17.85,2501,0.37880198
17.86,2510,0.291386139
17.87,2526,0.135980198
17.88,2545,-0.048564356
17.89,2559,-0.184544554
17.9,2577,-0.359376238
17.91,2585,-0.437079208
17.92,2607,-0.650762376
17.93,2612,-0.699326733
17.94,2628,-0.854732673
17.95,2626,-0.835306931
17.96,2639,-0.961574257
17.97,2637,-0.942148515
17.98,2652,-1.087841584
17.99,2655,-1.116980198
18,2675,-1.311237624
18.01,2644,-1.010138614
18.02,2621,-0.786742574
18.03,2586,-0.446792079
18.04,2600,-0.582772277
18.05,2598,-0.563346535
18.06,2610,-0.67990099
18.07,2585,-0.437079208
18.08,2593,-0.514782178
18.09,2564,-0.233108911
18.1,2578,-0.369089109
18.11,2555,-0.145693069
18.12,2555,-0.145693069
18.13,2532,0.07770297
18.14,2532,0.07770297
18.15,2514,0.252534653
18.16,2516,0.233108911
18.17,2493,0.45650495
18.18,2495,0.437079208
18.19,2478,0.60219802
18.2,2475,0.631336634
18.21,2473,0.650762376
18.22,2483,0.553633663
18.23,2475,0.631336634
18.24,2474,0.641049505
18.25,2471,0.670188119
18.26,2466,0.718752475
18.27,2472,0.660475248
18.28,2472,0.660475248
18.29,2503,0.359376238
18.3,2515,0.242821782
18.31,2524,0.155405941
18.32,2526,0.135980198
18.33,2523,0.165118812
18.34,2525,0.145693069
18.35,2549,-0.087415842
18.36,2547,-0.067990099
18.37,2557,-0.165118812
18.38,2555,-0.145693069
18.39,2568,-0.271960396
18.4,2573,-0.320524752
18.41,2580,-0.388514851
18.42,2583,-0.417653465
18.43,2585,-0.437079208
18.44,2591,-0.495356436
18.45,2590,-0.485643564
18.46,2606,-0.641049505
18.47,2617,-0.747891089
18.48,2612,-0.699326733
18.49,2579,-0.37880198
18.5,2570,-0.291386139
18.51,2571,-0.30109901
18.52,2580,-0.388514851
18.53,2570,-0.291386139
18.54,2570,-0.291386139
18.55,2553,-0.126267327
18.56,2559,-0.184544554
18.57,2549,-0.087415842
18.58,2555,-0.145693069
18.59,2546,-0.058277228
18.6,2548,-0.07770297
18.61,2536,0.038851485
18.62,2535,0.048564356
18.63,2523,0.165118812
18.64,2540,0
18.65,2519,0.203970297
18.66,2528,0.116554455
18.67,2508,0.310811881
18.68,2521,0.184544554
18.69,2509,0.30109901
18.7,2529,0.106841584
18.71,2510,0.291386139
18.72,2524,0.155405941
18.73,2519,0.203970297
18.74,2526,0.135980198
18.75,2521,0.184544554
18.76,2536,0.038851485
18.77,2540,0
18.78,2547,-0.067990099
18.79,2545,-0.048564356
18.8,2548,-0.07770297
18.81,2548,-0.07770297
18.82,2552,-0.116554455
18.83,2565,-0.242821782
18.84,2561,-0.203970297
18.85,2568,-0.271960396
18.86,2564,-0.233108911
18.87,2563,-0.22339604
18.88,2550,-0.097128713
18.89,2552,-0.116554455
18.9,2542,-0.019425743
18.91,2546,-0.058277228
18.92,2544,-0.038851485
18.93,2551,-0.106841584
18.94,2545,-0.048564356
18.95,2549,-0.087415842
18.96,2540,0
18.97,2545,-0.048564356
18.98,2545,-0.048564356
18.99,2545,-0.048564356
19,2547,-0.067990099
19.01,2548,-0.07770297
19.02,2549,-0.087415842
19.03,2545,-0.048564356
19.04,2540,0
19.05,2543,-0.029138614
19.06,2547,-0.067990099
19.07,2540,0
19.08,2545,-0.048564356
19.09,2543,-0.029138614
19.1,2549,-0.087415842
19.11,2541,-0.009712871
19.12,2552,-0.116554455
19.13,2540,0
19.14,2552,-0.116554455
19.15,2542,-0.019425743
19.16,2546,-0.058277228
19.17,2539,0.009712871
19.18,2547,-0.067990099
19.19,2541,-0.009712871
19.2,2551,-0.106841584
19.21,2539,0.009712871
19.22,2549,-0.087415842
19.23,2547,-0.067990099
19.24,2545,-0.048564356
19.25,2544,-0.038851485
19.26,2547,-0.067990099
19.27,2543,-0.029138614
19.28,2541,-0.009712871
19.29,2544,-0.038851485
19.3,2543,-0.029138614
19.31,2545,-0.048564356
19.32,2549,-0.087415842
19.33,2546,-0.058277228
19.34,2544,-0.038851485
19.35,2548,-0.07770297
19.36,2551,-0.106841584
19.37,2546,-0.058277228
19.38,2538,0.019425743
19.39,2553,-0.126267327
19.4,2542,-0.019425743
