Time (s),Raw Acceleration,Acceleration x (m/s^2)
3.18,2541,-0.009712871
3.19,2551,-0.106841584
3.2,2545,-0.048564356
3.21,2548,-0.07770297
3.22,2546,-0.058277228
3.23,2547,-0.067990099
3.24,2544,-0.038851485
3.25,2543,-0.029138614
3.26,2547,-0.067990099
3.27,2543,-0.029138614
3.28,2551,-0.106841584
3.29,2544,-0.038851485
3.3,2552,-0.116554455
3.31,2545,-0.048564356
3.32,2549,-0.087415842
3.33,2539,0.009712871
3.34,2544,-0.038851485
3.35,2547,-0.067990099
3.36,2544,-0.038851485
3.37,2539,0.009712871
3.38,2510,0.291386139
3.39,2507,0.320524752
3.4,2496,0.427366337
3.41,2516,0.233108911
3.42,2520,0.194257426
3.43,2536,0.038851485
3.44,2540,0
3.45,2555,-0.145693069
3.46,2557,-0.165118812
3.47,2566,-0.252534653
3.48,2575,-0.339950495
3.49,2592,-0.505069307
3.5,2596,-0.543920792
3.51,2585,-0.437079208
3.52,2575,-0.339950495
3.53,2572,-0.310811881
3.54,2589,-0.475930693
3.55,2600,-0.582772277
3.56,2599,-0.573059406
3.57,2582,-0.407940594
3.58,2575,-0.339950495
3.59,2582,-0.407940594
3.6,2592,-0.505069307
3.61,2588,-0.466217822
3.62,2575,-0.339950495
3.63,2563,-0.22339604
3.64,2551,-0.106841584
3.65,2551,-0.106841584
3.66,2538,0.019425743
3.67,2543,-0.029138614
3.68,2514,0.252534653
3.69,2513,0.262247525
3.7,2489,0.495356436
3.71,2493,0.45650495
3.72,2494,0.446792079
3.73,2490,0.485643564
3.74,2457,0.806168317
3.75,2453,0.845019802
3.76,2445,0.922722772
3.77,2448,0.893584158
3.78,2428,1.087841584
3.79,2443,0.942148515
3.8,2472,0.660475248
3.81,2491,0.475930693
3.82,2487,0.514782178
3.83,2483,0.553633663
3.84,2484,0.543920792
3.85,2490,0.485643564
3.86,2511,0.281673267
3.87,2525,0.145693069
3.88,2539,0.009712871
3.89,2540,0
3.9,2556,-0.155405941
3.91,2573,-0.320524752
3.92,2582,-0.407940594
3.93,2609,-0.670188119
3.94,2608,-0.660475248
3.95,2650,-1.068415842
3.96,2651,-1.078128713
3.97,2666,-1.223821782
3.98,2673,-1.291811881
3.99,2708,-1.631762376
4,2708,-1.631762376
4.01,2698,-1.534633663
4.02,2649,-1.05870297
4.03,2636,-0.932435644
4.04,2650,-1.068415842
4.05,2668,-1.243247525
4.06,2664,-1.20439604
4.07,2650,-1.068415842
4.08,2632,-0.893584158
4.09,2611,-0.689613861
4.1,2604,-0.621623762
4.11,2581,-0.398227723
4.12,2583,-0.417653465
4.13,2556,-0.155405941
4.14,2542,-0.019425743
4.15,2511,0.281673267
4.16,2504,0.349663366
4.17,2489,0.495356436
4.18,2457,0.806168317
4.19,2446,0.913009901
4.2,2391,1.447217822
4.21,2373,1.622049505
4.22,2364,1.709465347
4.23,2368,1.670613861
4.24,2350,1.845445545
4.25,2356,1.787168317
4.26,2342,1.923148515
4.27,2353,1.816306931
4.28,2377,1.58319802
4.29,2408,1.28209901
4.3,2422,1.146118812
4.31,2411,1.252960396
4.32,2418,1.184970297
4.33,2446,0.913009901
4.34,2458,0.796455446
4.35,2478,0.60219802
4.36,2502,0.369089109
4.37,2510,0.291386139
4.38,2558,-0.174831683
4.39,2578,-0.369089109
4.4,2612,-0.699326733
4.41,2613,-0.709039604
4.42,2656,-1.126693069
4.43,2689,-1.447217822
4.44,2694,-1.495782178
4.45,2714,-1.690039604
4.46,2741,-1.952287129
4.47,2784,-2.369940594
4.48,2790,-2.428217822
4.49,2821,-2.729316832
4.5,2777,-2.301950495
4.51,2724,-1.787168317
4.52,2682,-1.379227723
4.53,2702,-1.573485149
4.54,2698,-1.534633663
4.55,2693,-1.486069307
4.56,2670,-1.262673267
4.57,2657,-1.136405941
4.58,2628,-0.854732673
4.59,2626,-0.835306931
4.6,2599,-0.573059406
4.61,2573,-0.320524752
4.62,2555,-0.145693069
4.63,2540,0
4.64,2522,0.174831683
4.65,2479,0.592485149
4.66,2464,0.738178218
4.67,2437,1.000425743
4.68,2424,1.126693069
4.69,2394,1.418079208
4.7,2367,1.680326733
4.71,2345,1.894009901
4.72,2308,2.253386139
4.73,2325,2.088267327
4.74,2315,2.18539604
4.75,2317,2.165970297
4.76,2317,2.165970297
4.77,2368,1.670613861
4.78,2389,1.466643564
4.79,2413,1.233534653
4.8,2406,1.301524752
4.81,2438,0.990712871
4.82,2441,0.961574257
4.83,2452,0.854732673
4.84,2477,0.611910891
4.85,2497,0.417653465
4.86,2514,0.252534653
4.87,2532,0.07770297
4.88,2557,-0.165118812
4.89,2581,-0.398227723
4.9,2612,-0.699326733
4.91,2621,-0.786742574
4.92,2655,-1.116980198
4.93,2678,-1.340376238
4.94,2699,-1.544346535
4.95,2701,-1.563772277
4.96,2739,-1.932861386
4.97,2775,-2.282524752
4.98,2792,-2.447643564
4.99,2820,-2.71960396
5,2788,-2.408792079
5.01,2730,-1.845445545
5.02,2683,-1.388940594
5.03,2700,-1.554059406
5.04,2690,-1.456930693
5.05,2696,-1.515207921
5.06,2667,-1.233534653
5.07,2666,-1.223821782
5.08,2631,-0.883871287
5.09,2627,-0.845019802
5.1,2598,-0.563346535
5.11,2582,-0.407940594
5.12,2564,-0.233108911
5.13,2530,0.097128713
5.14,2522,0.174831683
5.15,2486,0.52449505
5.16,2462,0.75760396
5.17,2436,1.010138614
5.18,2425,1.116980198
5.19,2388,1.476356436
5.2,2369,1.66090099
5.21,2347,1.874584158
5.22,2314,2.195108911
5.23,2318,2.156257426
5.24,2314,2.195108911
5.25,2318,2.156257426
5.26,2314,2.195108911
5.27,2354,1.806594059
5.28,2386,1.495782178
5.29,2421,1.155831683
5.3,2406,1.301524752
5.31,2436,1.010138614
5.32,2432,1.048990099
5.33,2451,0.864445545
5.34,2468,0.699326733
5.35,2496,0.427366337
5.36,2501,0.37880198
5.37,2532,0.07770297
5.38,2559,-0.184544554
5.39,2575,-0.339950495
5.4,2606,-0.641049505
5.41,2616,-0.738178218
5.42,2649,-1.05870297
5.43,2680,-1.35980198
5.44,2692,-1.476356436
5.45,2699,-1.544346535
5.46,2745,-1.991138614
5.47,2781,-2.34080198
5.48,2797,-2.496207921
5.49,2829,-2.807019802
5.5,2785,-2.379653465
5.51,2731,-1.855158416
5.52,2681,-1.369514851
5.53,2699,-1.544346535
5.54,2688,-1.43750495
5.55,2696,-1.515207921
5.56,2662,-1.184970297
5.57,2671,-1.272386139
5.58,2632,-0.893584158
5.59,2622,-0.796455446
5.6,2586,-0.446792079
5.61,2580,-0.388514851
5.62,2564,-0.233108911
5.63,2548,-0.07770297
5.64,2523,0.165118812
5.65,2482,0.563346535
5.66,2473,0.650762376
5.67,2442,0.951861386
5.68,2427,1.097554455
5.69,2392,1.43750495
5.7,2359,1.758029703
5.71,2336,1.981425743
5.72,2315,2.18539604
5.73,2322,2.117405941
5.74,2320,2.136831683
5.75,2318,2.156257426
5.76,2314,2.195108911
5.77,2360,1.748316832
5.78,2382,1.534633663
5.79,2416,1.20439604
5.8,2409,1.272386139
5.81,2431,1.05870297
5.82,2444,0.932435644
5.83,2449,0.883871287
5.84,2470,0.67990099
5.85,2504,0.349663366
5.86,2495,0.437079208
5.87,2532,0.07770297
5.88,2555,-0.145693069
5.89,2584,-0.427366337
5.9,2616,-0.738178218
5.91,2621,-0.786742574
5.92,2651,-1.078128713
5.93,2672,-1.28209901
5.94,2696,-1.515207921
5.95,2703,-1.58319802
5.96,2756,-2.097980198
5.97,2780,-2.331089109
5.98,2790,-2.428217822
5.99,2828,-2.797306931
6,2785,-2.379653465
6.01,2734,-1.88429703
6.02,2686,-1.418079208
6.03,2709,-1.641475248
6.04,2683,-1.388940594
6.05,2691,-1.466643564
6.06,2659,-1.155831683
6.07,2665,-1.214108911
6.08,2631,-0.883871287
6.09,2623,-0.806168317
6.1,2593,-0.514782178
6.11,2581,-0.398227723
6.12,2561,-0.203970297
6.13,2551,-0.106841584
6.14,2513,0.262247525
6.15,2475,0.631336634
6.16,2464,0.738178218
6.17,2441,0.961574257
6.18,2433,1.039277228
6.19,2388,1.476356436
6.2,2365,1.699752475
6.21,2326,2.078554455
6.22,2306,2.272811881
6.23,2314,2.195108911
6.24,2319,2.146544554
6.25,2319,2.146544554
6.26,2321,2.127118812
6.27,2362,1.728891089
6.28,2380,1.554059406
6.29,2410,1.262673267
6.3,2403,1.330663366
6.31,2435,1.019851485
6.32,2449,0.883871287
6.33,2462,0.75760396
6.34,2471,0.670188119
6.35,2509,0.30109901
6.36,2507,0.320524752
6.37,2527,0.126267327
6.38,2561,-0.203970297
6.39,2588,-0.466217822
6.4,2605,-0.631336634
6.41,2621,-0.786742574
6.42,2650,-1.068415842
6.43,2677,-1.330663366
6.44,2694,-1.495782178
6.45,2719,-1.73860396
6.46,2753,-2.068841584
6.47,2789,-2.41850495
6.48,2788,-2.408792079
6.49,2830,-2.816732673
6.5,2782,-2.350514851
6.51,2731,-1.855158416
6.52,2682,-1.379227723
6.53,2701,-1.563772277
6.54,2684,-1.398653465
6.55,2690,-1.456930693
6.56,2669,-1.252960396
6.57,2666,-1.223821782
6.58,2636,-0.932435644
6.59,2620,-0.777029703
6.6,2584,-0.427366337
6.61,2565,-0.242821782
6.62,2566,-0.252534653
6.63,2530,0.097128713
6.64,2522,0.174831683
6.65,2478,0.60219802
6.66,2469,0.689613861
6.67,2428,1.087841584
6.68,2416,1.20439604
6.69,2386,1.495782178
6.7,2358,1.767742574
6.71,2334,2.000851485
6.72,2299,2.34080198
6.73,2320,2.136831683
6.74,2314,2.195108911
6.75,2306,2.272811881
6.76,2317,2.165970297
6.77,2361,1.73860396
6.78,2394,1.418079208
6.79,2411,1.252960396
6.8,2411,1.252960396
6.81,2437,1.000425743
6.82,2445,0.922722772
6.83,2436,1.010138614
6.84,2476,0.621623762
6.85,2493,0.45650495
6.86,2522,0.174831683
6.87,2525,0.145693069
6.88,2570,-0.291386139
6.89,2585,-0.437079208
6.9,2600,-0.582772277
6.91,2623,-0.806168317
6.92,2659,-1.155831683
6.93,2693,-1.486069307
6.94,2689,-1.447217822
6.95,2725,-1.796881188
6.96,2751,-2.049415842
6.97,2801,-2.535059406
6.98,2726,-1.806594059
6.99,2899,-3.486920792
7,2791,-2.437930693
7.01,2721,-1.758029703
7.02,2676,-1.320950495
7.03,2699,-1.544346535
7.04,2685,-1.408366337
7.05,2687,-1.427792079
7.06,2677,-1.330663366
7.07,2655,-1.116980198
7.08,2637,-0.942148515
7.09,2615,-0.728465347
7.1,2598,-0.563346535
7.11,2569,-0.281673267
7.12,2559,-0.184544554
7.13,2530,0.097128713
7.14,2497,0.417653465
7.15,2466,0.718752475
7.16,2454,0.835306931
7.17,2433,1.039277228
7.18,2410,1.262673267
7.19,2378,1.573485149
7.2,2348,1.864871287
7.21,2327,2.068841584
7.22,2304,2.292237624
7.23,2324,2.097980198
7.24,2307,2.26309901
7.25,2297,2.360227723
7.26,2324,2.097980198
7.27,2361,1.73860396
7.28,2405,1.311237624
7.29,2415,1.214108911
7.3,2418,1.184970297
7.31,2433,1.039277228
7.32,2454,0.835306931
7.33,2442,0.951861386
7.34,2471,0.670188119
7.35,2491,0.475930693
7.36,2515,0.242821782
7.37,2536,0.038851485
7.38,2564,-0.233108911
7.39,2599,-0.573059406
7.4,2606,-0.641049505
7.41,2643,-1.000425743
7.42,2659,-1.155831683
7.43,2703,-1.58319802
7.44,2685,-1.408366337
7.45,2730,-1.845445545
7.46,2757,-2.107693069
7.47,2805,-2.573910891
7.48,2790,-2.428217822
7.49,2844,-2.952712871
7.5,2766,-2.195108911
7.51,2707,-1.622049505
7.52,2682,-1.379227723
7.53,2691,-1.466643564
7.54,2694,-1.495782178
7.55,2690,-1.456930693
7.56,2685,-1.408366337
7.57,2651,-1.078128713
7.58,2633,-0.90329703
7.59,2608,-0.660475248
7.6,2583,-0.417653465
7.61,2573,-0.320524752
7.62,2546,-0.058277228
7.63,2531,0.087415842
7.64,2480,0.582772277
7.65,2472,0.660475248
7.66,2438,0.990712871
7.67,2446,0.913009901
7.68,2408,1.28209901
7.69,2376,1.592910891
7.7,2342,1.923148515
7.71,2322,2.117405941
7.72,2304,2.292237624
7.73,2335,1.991138614
7.74,2310,2.233960396
7.75,2287,2.457356436
7.76,2327,2.068841584
7.77,2359,1.758029703
7.78,2415,1.214108911
7.79,2417,1.194683168
7.8,2421,1.155831683
7.81,2426,1.107267327
7.82,2446,0.913009901
7.83,2459,0.786742574
7.84,2473,0.650762376
7.85,2499,0.398227723
7.86,2514,0.252534653
7.87,2550,-0.097128713
7.88,2553,-0.126267327
7.89,2600,-0.582772277
7.9,2610,-0.67990099
7.91,2645,-1.019851485
7.92,2666,-1.223821782
7.93,2701,-1.563772277
7.94,2693,-1.486069307
7.95,2732,-1.864871287
7.96,2768,-2.214534653
7.97,2800,-2.525346535
7.98,2810,-2.622475248
7.99,2838,-2.894435644
8,2769,-2.224247525
8.01,2703,-1.58319802
8.02,2688,-1.43750495
8.03,2690,-1.456930693
8.04,2694,-1.495782178
8.05,2686,-1.418079208
8.06,2672,-1.28209901
8.07,2657,-1.136405941
8.08,2615,-0.728465347
8.09,2615,-0.728465347
8.1,2574,-0.330237624
8.11,2573,-0.320524752
8.12,2541,-0.009712871
8.13,2531,0.087415842
8.14,2471,0.670188119
8.15,2462,0.75760396
8.16,2435,1.019851485
8.17,2431,1.05870297
8.18,2400,1.35980198
8.19,2370,1.651188119
8.2,2347,1.874584158
8.21,2307,2.26309901
8.22,2317,2.165970297
8.23,2319,2.146544554
8.24,2302,2.311663366
8.25,2291,2.41850495
8.26,2330,2.03970297
8.27,2368,1.670613861
8.28,2411,1.252960396
8.29,2425,1.116980198
8.3,2409,1.272386139
8.31,2437,1.000425743
8.32,2439,0.981
8.33,2474,0.641049505
8.34,2472,0.660475248
8.35,2504,0.349663366
8.36,2518,0.213683168
8.37,2549,-0.087415842
8.38,2563,-0.22339604
8.39,2604,-0.621623762
8.4,2618,-0.75760396
8.41,2646,-1.029564356
8.42,2672,-1.28209901
8.43,2689,-1.447217822
8.44,2697,-1.524920792
8.45,2736,-1.903722772
8.46,2770,-2.233960396
8.47,2799,-2.515633663
8.48,2816,-2.680752475
8.49,2833,-2.845871287
8.5,2753,-2.068841584
8.51,2701,-1.563772277
8.52,2682,-1.379227723
8.53,2697,-1.524920792
8.54,2698,-1.534633663
8.55,2690,-1.456930693
8.56,2674,-1.301524752
8.57,2659,-1.155831683
8.58,2618,-0.75760396
8.59,2614,-0.718752475
8.6,2581,-0.398227723
8.61,2577,-0.359376238
8.62,2539,0.009712871
8.63,2527,0.126267327
8.64,2485,0.534207921
8.65,2463,0.747891089
8.66,2442,0.951861386
8.67,2428,1.087841584
8.68,2404,1.320950495
8.69,2364,1.709465347
8.7,2353,1.816306931
8.71,2311,2.224247525
8.72,2310,2.233960396
8.73,2319,2.146544554
8.74,2306,2.272811881
8.75,2301,2.321376238
8.76,2324,2.097980198
8.77,2373,1.622049505
8.78,2414,1.223821782
8.79,2434,1.029564356
8.8,2420,1.165544554
8.81,2447,0.90329703
8.82,2442,0.951861386
8.83,2459,0.786742574
8.84,2476,0.621623762
8.85,2507,0.320524752
8.86,2514,0.252534653
8.87,2553,-0.126267327
8.88,2571,-0.30109901
8.89,2596,-0.543920792
8.9,2608,-0.660475248
8.91,2647,-1.039277228
8.92,2684,-1.398653465
8.93,2697,-1.524920792
8.94,2700,-1.554059406
8.95,2733,-1.874584158
8.96,2768,-2.214534653
8.97,2793,-2.457356436
8.98,2815,-2.671039604
8.99,2841,-2.923574257
9,2747,-2.010564356
9.01,2707,-1.622049505
9.02,2678,-1.340376238
9.03,2691,-1.466643564
9.04,2690,-1.456930693
9.05,2702,-1.573485149
9.06,2668,-1.243247525
9.07,2656,-1.126693069
9.08,2621,-0.786742574
9.09,2612,-0.699326733
9.1,2579,-0.37880198
9.11,2563,-0.22339604
9.12,2553,-0.126267327
9.13,2528,0.116554455
9.14,2491,0.475930693
9.15,2464,0.738178218
9.16,2446,0.913009901
9.17,2427,1.097554455
9.18,2409,1.272386139
9.19,2370,1.651188119
9.2,2354,1.806594059
9.21,2319,2.146544554
9.22,2320,2.136831683
9.23,2333,2.010564356
9.24,2300,2.331089109
9.25,2301,2.321376238
9.26,2327,2.068841584
9.27,2372,1.631762376
9.28,2408,1.28209901
9.29,2430,1.068415842
9.3,2412,1.243247525
9.31,2439,0.981
9.32,2436,1.010138614
9.33,2467,0.709039604
9.34,2471,0.670188119
9.35,2501,0.37880198
9.36,2512,0.271960396
9.37,2553,-0.126267327
9.38,2575,-0.339950495
9.39,2592,-0.505069307
9.4,2613,-0.709039604
9.41,2628,-0.854732673
9.42,2674,-1.301524752
9.43,2697,-1.524920792
9.44,2692,-1.476356436
9.45,2719,-1.73860396
9.46,2772,-2.253386139
9.47,2797,-2.496207921
9.48,2810,-2.622475248
9.49,2837,-2.884722772
9.5,2758,-2.117405941
9.51,2706,-1.612336634
9.52,2684,-1.398653465
9.53,2692,-1.476356436
9.54,2690,-1.456930693
9.55,2695,-1.50549505
9.56,2662,-1.184970297
9.57,2667,-1.233534653
9.58,2627,-0.845019802
9.59,2612,-0.699326733
9.6,2573,-0.320524752
9.61,2572,-0.310811881
9.62,2550,-0.097128713
9.63,2529,0.106841584
9.64,2491,0.475930693
9.65,2473,0.650762376
9.66,2442,0.951861386
9.67,2427,1.097554455
9.68,2416,1.20439604
9.69,2375,1.602623762
9.7,2351,1.835732673
9.71,2317,2.165970297
9.72,2311,2.224247525
9.73,2327,2.068841584
9.74,2304,2.292237624
9.75,2300,2.331089109
9.76,2328,2.059128713
9.77,2360,1.748316832
9.78,2398,1.379227723
9.79,2424,1.126693069
9.8,2425,1.116980198
9.81,2443,0.942148515
9.82,2439,0.981
9.83,2460,0.777029703
9.84,2469,0.689613861
9.85,2500,0.388514851
9.86,2502,0.369089109
9.87,2536,0.038851485
9.88,2570,-0.291386139
9.89,2590,-0.485643564
9.9,2610,-0.67990099
9.91,2636,-0.932435644
9.92,2666,-1.223821782
9.93,2692,-1.476356436
9.94,2699,-1.544346535
9.95,2711,-1.66090099
9.96,2767,-2.204821782
9.97,2795,-2.476782178
9.98,2793,-2.457356436
9.99,2838,-2.894435644
10,2767,-2.204821782
10.01,2721,-1.758029703
10.02,2679,-1.350089109
10.03,2687,-1.427792079
10.04,2688,-1.43750495
10.05,2700,-1.554059406
10.06,2668,-1.243247525
10.07,2668,-1.243247525
10.08,2621,-0.786742574
10.09,2631,-0.883871287
10.1,2582,-0.407940594
10.11,2575,-0.339950495
10.12,2553,-0.126267327
10.13,2532,0.07770297
10.14,2497,0.417653465
10.15,2472,0.660475248
10.16,2453,0.845019802
10.17,2430,1.068415842
10.18,2418,1.184970297
10.19,2384,1.515207921
10.2,2356,1.787168317
10.21,2322,2.117405941
10.22,2308,2.253386139
10.23,2317,2.165970297
10.24,2312,2.214534653
10.25,2303,2.301950495
10.26,2331,2.029990099
10.27,2360,1.748316832
10.28,2398,1.379227723
10.29,2413,1.233534653
10.3,2428,1.087841584
10.31,2439,0.981
10.32,2435,1.019851485
10.33,2456,0.815881188
10.34,2470,0.67990099
10.35,2496,0.427366337
10.36,2505,0.339950495
10.37,2536,0.038851485
10.38,2562,-0.213683168
10.39,2587,-0.45650495
10.4,2607,-0.650762376
10.41,2629,-0.864445545
10.42,2649,-1.05870297
10.43,2688,-1.43750495
10.44,2695,-1.50549505
10.45,2706,-1.612336634
10.46,2755,-2.088267327
10.47,2785,-2.379653465
10.48,2798,-2.505920792
10.49,2831,-2.826445545
10.5,2787,-2.399079208
10.51,2723,-1.777455446
10.52,2681,-1.369514851
10.53,2695,-1.50549505
10.54,2689,-1.447217822
10.55,2689,-1.447217822
10.56,2666,-1.223821782
10.57,2660,-1.165544554
10.58,2632,-0.893584158
10.59,2629,-0.864445545
10.6,2587,-0.45650495
10.61,2585,-0.437079208
10.62,2555,-0.145693069
10.63,2540,0
10.64,2514,0.252534653
10.65,2487,0.514782178
10.66,2454,0.835306931
10.67,2429,1.078128713
10.68,2413,1.233534653
10.69,2388,1.476356436
10.7,2363,1.719178218
10.71,2335,1.991138614
10.72,2303,2.301950495
10.73,2319,2.146544554
10.74,2317,2.165970297
10.75,2306,2.272811881
10.76,2322,2.117405941
10.77,2357,1.777455446
10.78,2392,1.43750495
10.79,2410,1.262673267
10.8,2419,1.175257426
10.81,2432,1.048990099
10.82,2448,0.893584158
10.83,2447,0.90329703
10.84,2464,0.738178218
10.85,2497,0.417653465
10.86,2506,0.330237624
10.87,2532,0.07770297
10.88,2554,-0.135980198
10.89,2599,-0.573059406
10.9,2604,-0.621623762
10.91,2628,-0.854732673
10.92,2648,-1.048990099
10.93,2687,-1.427792079
10.94,2680,-1.35980198
10.95,2705,-1.602623762
10.96,2738,-1.923148515
10.97,2788,-2.408792079
10.98,2797,-2.496207921
10.99,2828,-2.797306931
11,2790,-2.428217822
11.01,2719,-1.73860396
11.02,2683,-1.388940594
11.03,2689,-1.447217822
11.04,2692,-1.476356436
11.05,2693,-1.486069307
11.06,2675,-1.311237624
11.07,2663,-1.194683168
11.08,2642,-0.990712871
11.09,2629,-0.864445545
11.1,2592,-0.505069307
11.11,2577,-0.359376238
11.12,2549,-0.087415842
11.13,2547,-0.067990099
11.14,2519,0.203970297
11.15,2483,0.553633663
11.16,2457,0.806168317
11.17,2440,0.971287129
11.18,2420,1.165544554
11.19,2399,1.369514851
11.2,2370,1.651188119
11.21,2341,1.932861386
11.22,2305,2.282524752
11.23,2308,2.253386139
11.24,2320,2.136831683
11.25,2311,2.224247525
11.26,2323,2.107693069
11.27,2358,1.767742574
11.28,2391,1.447217822
11.29,2409,1.272386139
11.3,2420,1.165544554
11.31,2438,0.990712871
11.32,2438,0.990712871
11.33,2443,0.942148515
11.34,2472,0.660475248
11.35,2501,0.37880198
11.36,2497,0.417653465
11.37,2530,0.097128713
11.38,2557,-0.165118812
11.39,2594,-0.52449505
11.4,2599,-0.573059406
11.41,2630,-0.874158416
11.42,2639,-0.961574257
11.43,2685,-1.408366337
11.44,2692,-1.476356436
11.45,2706,-1.612336634
11.46,2730,-1.845445545
11.47,2788,-2.408792079
11.48,2793,-2.457356436
11.49,2838,-2.894435644
11.5,2786,-2.389366337
11.51,2731,-1.855158416
11.52,2690,-1.456930693
11.53,2689,-1.447217822
11.54,2689,-1.447217822
11.55,2683,-1.388940594
11.56,2667,-1.233534653
11.57,2665,-1.214108911
11.58,2635,-0.922722772
11.59,2628,-0.854732673
11.6,2599,-0.573059406
11.61,2586,-0.446792079
11.62,2555,-0.145693069
11.63,2550,-0.097128713
11.64,2516,0.233108911
11.65,2485,0.534207921
11.66,2456,0.815881188
11.67,2444,0.932435644
11.68,2422,1.146118812
11.69,2403,1.330663366
11.7,2368,1.670613861
11.71,2343,1.913435644
11.72,2308,2.253386139
11.73,2311,2.224247525
11.74,2321,2.127118812
11.75,2314,2.195108911
11.76,2328,2.059128713
11.77,2352,1.826019802
11.78,2386,1.495782178
11.79,2413,1.233534653
11.8,2424,1.126693069
11.81,2423,1.136405941
11.82,2440,0.971287129
11.83,2450,0.874158416
11.84,2471,0.670188119
11.85,2509,0.30109901
11.86,2510,0.291386139
11.87,2532,0.07770297
11.88,2559,-0.184544554
11.89,2594,-0.52449505
11.9,2604,-0.621623762
11.91,2628,-0.854732673
11.92,2647,-1.039277228
11.93,2681,-1.369514851
11.94,2682,-1.379227723
11.95,2711,-1.66090099
11.96,2735,-1.894009901
11.97,2778,-2.311663366
11.98,2792,-2.447643564
11.99,2838,-2.894435644
12,2799,-2.515633663
12.01,2726,-1.806594059
12.02,2690,-1.456930693
12.03,2690,-1.456930693
12.04,2693,-1.486069307
12.05,2694,-1.495782178
12.06,2672,-1.28209901
12.07,2662,-1.184970297
12.08,2638,-0.951861386
12.09,2621,-0.786742574
12.1,2595,-0.534207921
12.11,2579,-0.37880198
12.12,2551,-0.106841584
12.13,2554,-0.135980198
12.14,2519,0.203970297
12.15,2489,0.495356436
12.16,2451,0.864445545
12.17,2442,0.951861386
12.18,2424,1.126693069
12.19,2401,1.350089109
12.2,2366,1.690039604
12.21,2345,1.894009901
12.22,2315,2.18539604
12.23,2310,2.233960396
12.24,2328,2.059128713
12.25,2309,2.243673267
12.26,2324,2.097980198
12.27,2353,1.816306931
12.28,2389,1.466643564
12.29,2406,1.301524752
12.3,2419,1.175257426
12.31,2423,1.136405941
12.32,2450,0.874158416
12.33,2450,0.874158416
12.34,2471,0.670188119
12.35,2500,0.388514851
12.36,2503,0.359376238
12.37,2532,0.07770297
12.38,2554,-0.135980198
12.39,2593,-0.514782178
12.4,2605,-0.631336634
12.41,2618,-0.75760396
12.42,2650,-1.068415842
12.43,2686,-1.418079208
12.44,2687,-1.427792079
12.45,2704,-1.592910891
12.46,2743,-1.971712871
12.47,2783,-2.360227723
12.48,2796,-2.48649505
12.49,2830,-2.816732673
12.5,2793,-2.457356436
12.51,2727,-1.816306931
12.52,2686,-1.418079208
12.53,2690,-1.456930693
12.54,2692,-1.476356436
12.55,2690,-1.456930693
12.56,2665,-1.214108911
12.57,2663,-1.194683168
12.58,2637,-0.942148515
12.59,2632,-0.893584158
12.6,2589,-0.475930693
12.61,2593,-0.514782178
12.62,2548,-0.07770297
12.63,2546,-0.058277228
12.64,2509,0.30109901
12.65,2487,0.514782178
12.66,2459,0.786742574
12.67,2429,1.078128713
12.68,2423,1.136405941
12.69,2392,1.43750495
12.7,2372,1.631762376
12.71,2334,2.000851485
12.72,2315,2.18539604
12.73,2303,2.301950495
12.74,2327,2.068841584
12.75,2307,2.26309901
12.76,2330,2.03970297
12.77,2353,1.816306931
12.78,2393,1.427792079
12.79,2409,1.272386139
12.8,2423,1.136405941
12.81,2433,1.039277228
12.82,2444,0.932435644
12.83,2456,0.815881188
12.84,2463,0.747891089
12.85,2495,0.437079208
12.86,2507,0.320524752
12.87,2548,-0.07770297
12.88,2559,-0.184544554
12.89,2591,-0.495356436
12.9,2605,-0.631336634
12.91,2618,-0.75760396
12.92,2661,-1.175257426
12.93,2688,-1.43750495
12.94,2686,-1.418079208
12.95,2708,-1.631762376
12.96,2752,-2.059128713
12.97,2783,-2.360227723
12.98,2801,-2.535059406
12.99,2833,-2.845871287
13,2787,-2.399079208
13.01,2727,-1.816306931
13.02,2682,-1.379227723
13.03,2696,-1.515207921
13.04,2683,-1.388940594
13.05,2695,-1.50549505
13.06,2664,-1.20439604
13.07,2665,-1.214108911
13.08,2625,-0.825594059
13.09,2632,-0.893584158
13.1,2593,-0.514782178
13.11,2579,-0.37880198
13.12,2555,-0.145693069
13.13,2532,0.07770297
13.14,2511,0.281673267
13.15,2480,0.582772277
13.16,2454,0.835306931
13.17,2420,1.165544554
13.18,2418,1.184970297
13.19,2378,1.573485149
13.2,2367,1.680326733
13.21,2326,2.078554455
13.22,2316,2.175683168
13.23,2315,2.18539604
13.24,2317,2.165970297
13.25,2302,2.311663366
13.26,2328,2.059128713
13.27,2362,1.728891089
13.28,2394,1.418079208
13.29,2421,1.155831683
13.3,2418,1.184970297
13.31,2433,1.039277228
13.32,2446,0.913009901
13.33,2446,0.913009901
13.34,2525,0.145693069
13.35,2532,0.07770297
13.36,2455,0.825594059
13.37,2494,0.446792079
13.38,2571,-0.30109901
13.39,2616,-0.738178218
13.4,2647,-1.039277228
13.41,2658,-1.146118812
13.42,2691,-1.466643564
13.43,2705,-1.602623762
13.44,2714,-1.690039604
13.45,2742,-1.962
13.46,2774,-2.272811881
13.47,2791,-2.437930693
13.48,2795,-2.476782178
13.49,2794,-2.467069307
13.5,2702,-1.573485149
13.51,2672,-1.28209901
13.52,2644,-1.010138614
13.53,2664,-1.20439604
13.54,2645,-1.019851485
13.55,2669,-1.252960396
13.56,2635,-0.922722772
13.57,2619,-0.767316832
13.58,2589,-0.475930693
13.59,2570,-0.291386139
13.6,2549,-0.087415842
13.61,2528,0.116554455
13.62,2530,0.097128713
13.63,2515,0.242821782
13.64,2483,0.553633663
13.65,2430,1.068415842
13.66,2445,0.922722772
13.67,2428,1.087841584
13.68,2397,1.388940594
13.69,2390,1.456930693
13.7,2395,1.408366337
13.71,2403,1.330663366
13.72,2395,1.408366337
13.73,2401,1.350089109
13.74,2390,1.456930693
13.75,2387,1.486069307
13.76,2429,1.078128713
13.77,2462,0.75760396
13.78,2485,0.534207921
13.79,2498,0.407940594
13.8,2490,0.485643564
13.81,2496,0.427366337
13.82,2511,0.281673267
13.83,2530,0.097128713
13.84,2542,-0.019425743
13.85,2550,-0.097128713
13.86,2577,-0.359376238
13.87,2585,-0.437079208
13.88,2608,-0.660475248
13.89,2601,-0.592485149
13.9,2622,-0.796455446
13.91,2623,-0.806168317
13.92,2632,-0.893584158
13.93,2649,-1.05870297
13.94,2638,-0.951861386
13.95,2660,-1.165544554
13.96,2671,-1.272386139
13.97,2668,-1.243247525
13.98,2609,-0.670188119
13.99,2610,-0.67990099
14,2576,-0.349663366
14.01,2592,-0.505069307
14.02,2581,-0.398227723
14.03,2597,-0.553633663
14.04,2584,-0.427366337
14.05,2569,-0.281673267
14.06,2563,-0.22339604
14.07,2549,-0.087415842
14.08,2549,-0.087415842
14.09,2530,0.097128713
14.1,2535,0.048564356
14.11,2519,0.203970297
14.12,2509,0.30109901
14.13,2494,0.446792079
14.14,2497,0.417653465
14.15,2500,0.388514851
14.16,2488,0.505069307
14.17,2498,0.407940594
14.18,2477,0.611910891
14.19,2496,0.427366337
14.2,2484,0.543920792
14.21,2508,0.310811881
14.22,2492,0.466217822
14.23,2512,0.271960396
14.24,2511,0.281673267
14.25,2533,0.067990099
14.26,2521,0.184544554
14.27,2536,0.038851485
14.28,2554,-0.135980198
14.29,2568,-0.271960396
14.3,2580,-0.388514851
14.31,2586,-0.446792079
14.32,2595,-0.534207921
14.33,2579,-0.37880198
14.34,2569,-0.281673267
14.35,2562,-0.213683168
14.36,2557,-0.165118812
14.37,2550,-0.097128713
14.38,2540,0
14.39,2551,-0.106841584
14.4,2543,-0.029138614
14.41,2548,-0.07770297
14.42,2539,0.009712871
14.43,2554,-0.135980198
14.44,2541,-0.009712871
14.45,2553,-0.126267327
14.46,2538,0.019425743
14.47,2549,-0.087415842
14.48,2542,-0.019425743
14.49,2549,-0.087415842
14.5,2547,-0.067990099
14.51,2548,-0.07770297
14.52,2550,-0.097128713
14.53,2544,-0.038851485
14.54,2546,-0.058277228
